Time_Sec,ax,ay,az,gx,gy,gz
0.000000,0.39528980851173406,0.3453182578086853,-9.890688896179201,-0.010155142284929754,0.03162622824311257,-0.004024803638458252
0.000089,0.4318498075008393,0.3984747529029846,-9.803691864013672,-0.01566559076309204,0.005544722545892001,-0.00855475664138794
0.004358,0.4872698187828064,0.3141672313213349,-9.71067523956299,-0.016748905181884766,0.013382733799517156,-0.0014543534489348533
0.004447,0.4438941478729248,0.20041590929031372,-9.743293762207031,0.011314451694488525,0.003026426071301103,0.008346140384674072
0.010272,0.43626660108566284,0.2758077383041382,-9.81849479675293,-0.010974705219268799,0.004170835018157959,0.0018283725949004295
0.010355,0.4584486484527588,0.3970053195953369,-9.880187034606935,-0.017474591732025146,-0.0017374755116179588,-0.005283951759338379
0.014494,0.4934303462505341,0.33136314153671265,-9.77048110961914,-0.005440413020551205,-0.0020310280378907923,0.008644162677228453
0.014562,0.42843037843704224,0.16335907578468323,-9.638947486877443,-0.014439226128160955,0.006234645843505859,0.0070676212199032315
0.020000,0.4164363145828247,0.1555391997098923,-9.849813461303711,-0.006332993973046542,0.011478365398943426,8.493661880493164e-05
0.020068,0.4170147776603699,0.2847214341163635,-9.882266998291016,0.004138052929192782,0.012405218556523323,0.008727611042559149
0.024450,0.4081176519393921,0.2892267107963562,-9.765639305114748,-0.007033348549157382,0.004966557025909424,0.0036582350730895996
0.025210,0.4211017787456513,0.14777772128582004,-9.730445861816406,0.01176297664642334,-0.0010281802387908103,0.0056803226470947266
0.029862,0.3901414573192597,0.08320503681898118,-9.745260238647461,-0.005441903602331878,0.00256896042264998,0.010730326175689697
0.029960,0.42138463258743286,0.23105493187904358,-9.848769187927248,-0.0060126190073788175,0.007024407386779785,-0.004263222683221103
0.034866,0.43721786141395574,0.30399140715599066,-9.839447021484375,-0.005260110367089511,-0.01621245965361595,-0.008644161745905876
0.034937,0.45024743676185613,0.2260279357433319,-9.780901908874513,-0.000838935375213623,-0.005884469021111728,-0.019837915897369385
0.040706,0.40373820066452026,0.07760833948850633,-9.745323181152344,0.014790892601013184,0.008223950862884521,-0.017572937533259395
0.041146,0.4017311036586762,0.1326895505189896,-9.799673080444336,0.005747376941144466,0.0006586313829757274,-0.00734478235244751
0.045134,0.39501014351844793,0.2748476266860962,-9.92234992980957,0.01309812068939209,0.002621114486828447,-0.0017464162083342674
0.045218,0.41317540407180786,0.2605416774749756,-9.83218288421631,-0.0009447337361052632,-0.003048778278753162,-0.01004338264465332
0.049438,0.3828234970569611,0.12733882665634155,-9.74819087982178,0.010508299805223944,-0.022073091939091686,-0.011667609214782715
0.049510,0.36955881118774414,0.1273120641708374,-9.728670120239258,0.011464951559901237,-0.009696184657514097,-0.014197824522852898
0.054970,0.3818728625774384,0.2156779617071152,-9.891503334045412,0.015361606143414976,0.003521143924444914,-0.021807849407196045
0.055076,0.3666061758995056,0.3169681429862976,-9.86682987213135,-0.00032335519790649414,0.0038623807486146693,-0.020119544118642807
0.059443,0.4040260910987854,0.28823572397232056,-9.73508071899414,-0.016535820439457897,-0.008872150443494322,-0.020149346441030502
0.059541,0.4128292202949524,0.12064708769321442,-9.780257225036623,0.0017955900402739646,0.0009074807167053223,-0.009174645878374578
0.065132,0.3971026241779328,0.20412439107894897,-9.851287841796875,-0.007142126560211182,0.009250641800463201,-0.0053197150118649015
0.065218,0.37716948986053467,0.34633052349090576,-9.90449619293213,0.011892614886164665,0.006575882900506259,-0.01913905143737793
0.070368,0.40610992908477783,0.3105760514736176,-9.846214294433594,-0.01180470082908869,-0.006674230564385653,-0.019185245037078857
0.070448,0.39487305283546453,0.21370045840740207,-9.762482643127443,-0.0004813075938727707,0.007164478302001953,-0.018233062699437145
0.074673,0.3544674217700959,0.19884580373764038,-9.748290061950685,-0.011788309551775457,0.014483930543065071,-0.01741647720336914
0.074736,0.3870353996753693,0.3071767985820771,-9.889118194580078,0.02168416976928711,0.012268126942217352,-0.016389787197113037
0.080109,0.4140101373195649,0.39291465282440186,-9.842430114746094,-0.010977685451507568,0.0021919608116149902,-0.0162616390734911
0.080181,0.4428600072860718,0.32714080810546875,-9.807636260986328,-0.0106886038556695,-0.00963360071182251,-0.027722122147679332
0.084526,0.4462946057319641,0.2910739779472351,-9.728400230407717,-0.017730891704559326,-0.004835427273064853,-0.020064415410161022
0.084590,0.4497002959251404,0.27973285317420965,-9.85191059112549,-0.008562207221984863,0.00421553896740079,-0.01058727502822876
0.090170,0.44321316480636597,0.40493887662887573,-9.899580001831055,-0.01829713769257069,-0.010570884682238104,-0.013422967866063118
0.090248,0.431992381811142,0.3877798914909363,-9.771738052368164,-0.015763940289616588,-0.0007212160853669047,-0.01688599400222302
0.094637,0.4343970715999604,0.2422868758440018,-9.732296943664553,-0.004167855251580478,0.005950033664703369,-0.005349517799913883
0.094790,0.4013777673244477,0.25000280141830444,-9.772375106811523,0.005131960380822421,-0.005620718002319336,-0.009158254601061346
0.099996,0.39068371057510376,0.36009392142295843,-9.924041748046875,-0.00950694363564253,0.01609623618423939,-0.00098496675491333
0.100073,0.4524758160114289,0.38517007231712347,-9.776007652282717,-0.01478642225265503,0.008851290680468084,0.009575486183166504
0.104489,0.4769688546657563,0.3056789934635163,-9.778619766235352,-0.004939734935760498,-0.014354289509356024,-0.015830995514988903
0.104554,0.4536100327968598,0.22239531576633456,-9.696245193481445,-0.004665553104132415,0.0025749201886355877,-0.02505779452621937
0.109962,0.47975629568099976,0.26365286111831665,-9.840912818908693,-0.002658367156982422,0.007671118713915348,-0.008144975639879705
0.110029,0.44676876068115234,0.36715874075889593,-9.86611557006836,-0.00020116571977268907,0.018772482872009277,0.004363060463219882
0.116803,0.4960366487503052,0.3180493712425232,-9.756585121154787,-0.010155142284929754,-0.00807642936706543,-0.006119907833635807
0.116867,0.4549980163574219,0.16551092267036438,-9.736284255981445,-0.0009477138519287109,0.007282198872417212,0.003910064697265625
0.119926,0.3923341631889343,0.177119717001915,-9.783136367797852,0.0006884337053634227,0.012454391457140447,0.00862031988799572
0.119982,0.38011932373046875,0.26684123277664185,-9.901415824890138,0.008009374141693115,0.0003829598717857153,0.007544457912445068
0.124391,0.4160108864307404,0.3053176701068879,-9.781026840209961,0.001189112779684365,-0.004677474498748779,0.0018551945686340332
0.124500,0.4227323532104492,0.17112186551094055,-9.673633575439453,-0.009019673801958563,-0.0004291534423828125,0.0062793497927486905
0.130002,0.38158535957336426,0.11547482758760454,-9.777275085449219,-0.011086462996900083,-0.005754828918725253,2.086162567138672e-05
0.131723,0.3849943280220032,0.19859932363033297,-9.838695526123047,-0.008103252388536932,0.0011652708053588867,0.006198883522301913
0.134598,0.42515313625335693,0.3065399825572968,-9.85325813293457,-0.004400312900543213,0.006067752372473479,-0.009483099915087225
0.134683,0.4706420004367829,0.25959885120391846,-9.783938407897951,0.011806190945208074,0.008913874626159668,0.0004857778258156032
0.140085,0.40625408291816717,0.12361650913953783,-9.712221145629883,0.0048995022661983976,-0.005929172504693271,-0.013877451419830322
0.140170,0.39121443033218384,0.10158349573612213,-9.781432151794435,0.014460087753832342,0.003771483898162842,-0.013454259373247625
0.144423,0.42501249909400945,0.2509436905384064,-9.87247943878174,0.014790894463658333,-0.010044873692095281,-0.02028942294418812
0.144490,0.4008505344390869,0.26980689167976385,-9.8585205078125,0.006510317791253329,0.002561509609222412,-0.01789331622421742
0.149917,0.38463416695594793,0.166578471660614,-9.709483146667482,0.0034525985829532146,0.0014811751898378134,-0.0017985700396820905
0.149987,0.3641948103904724,0.10563628375530243,-9.752142906188967,0.01464933156967163,0.003974140156060458,-0.011466443538665771
0.154312,0.38453218340873724,0.18478797376155856,-9.90526866912842,0.002415478462353349,-0.00604093074798584,-0.014337897300720215
0.154402,0.40307548642158514,0.3293988406658173,-9.8643274307251,-0.004373490344733001,-0.01179724745452404,-0.01691878028213978
0.159716,0.41599124670028687,0.2690095901489258,-9.796147346496584,-0.012566150166094305,-0.012935697101056578,-0.009649990126490593
0.159777,0.40603253245353704,0.14200285077095032,-9.762260437011719,0.027969485148787502,-0.004337728023529053,-0.021418930962681774
0.165134,0.38645732402801514,0.1918534487485886,-9.841456413269045,0.005176663398742676,0.013029578141868116,-0.03724396601319314
0.165193,0.3608972430229187,0.3328617811203003,-9.919601440429688,0.0003024935722351074,0.00730007840320468,-0.027723606675863266
0.170027,0.38448119163513184,0.34559127688407904,-9.801816940307617,-0.0036373741459101443,-0.0037178404163569216,-0.010180473327636719
0.170139,0.3910363614559174,0.19758525490760803,-9.755446434020998,0.001525879022665322,0.004595518112182617,-0.009445847012102606
0.174538,0.3651122450828552,0.20018903911113742,-9.760858535766602,-0.005775689613074065,0.007715820334851742,-0.022855401039123535
0.174636,0.3895492851734162,0.3194533288478852,-9.912777900695803,0.0027999281883239746,0.014431775547564031,-0.018461044877767563
0.183394,0.41540703177452093,0.4240101277828217,-9.820348739624023,-0.018930437043309215,0.00894665811210871,0.00499039888381958
0.183491,0.47802004218101507,0.36622229218482977,-9.813565254211428,-0.008916854858398438,-0.0016108158743008973,-0.006000697612762451
0.184889,0.41681370139122015,0.22882241010665894,-9.721033096313477,-0.0006899238214828075,0.00734478235244751,-0.012695789337158203
0.185039,0.44287824630737305,0.29450264573097235,-9.84360980987549,-0.007903574034571648,0.0019654629286378626,-0.019989904016256332
0.189299,0.4321298599243164,0.4275907874107361,-9.924584388732912,-0.012770297937095167,-0.006960333790630103,0.001797080272808671
0.189428,0.4709588289260864,0.41192537546157837,-9.812326431274414,-0.007240475155413151,-0.002098083728924394,-0.009147822856903076
0.194131,0.433204710483551,0.23847553133964539,-9.708669662475586,-0.015549363568425179,0.011362136341631414,0.004202127922326327
0.194204,0.4042258560657502,0.20960471034049988,-9.783348083496094,-6.854532693978399e-05,0.0025838611181825404,0.002618133556097746
0.199728,0.4178005158901215,0.3478833138942719,-9.91168212890625,-0.0027820470277220015,0.0015884638996794822,-0.008980929851531982
0.199856,0.4400297105312348,0.4134162664413452,-9.795473098754883,-0.01834779977798462,0.00535994814708829,-0.007408858276903629
0.205013,0.4722543954849243,0.2697078883647919,-9.736779212951662,-0.025179984048008922,0.013418495655059814,0.011935830116271973
0.205077,0.43440860509872437,0.21146336197853088,-9.723843574523928,-0.005267560947686435,-0.003618001937866211,-0.006480515468865634
0.209028,0.4567510485649109,0.2460838705301285,-9.826832771301271,-0.005285441875457764,0.002966820728033781,-0.0012725592823699119
0.209085,0.4682236313819885,0.40130215883255005,-9.859429359436037,-0.022135673090815548,0.01267939805984497,-0.009159742854535581
0.215531,0.48528629541397095,0.31409445405006414,-9.750940322875977,-0.01955181919038296,-0.014241041615605354,-0.001670420402660966
0.215592,0.42027625441551214,0.1547587811946869,-9.681880950927734,-0.0010088086128234863,0.016023220494389537,-0.006346404552459717
0.220095,0.4083620309829712,0.15304365754127502,-9.785922050476076,-0.0007003545761108398,-0.007551909424364567,-0.0034451491665095095
0.220165,0.4170200824737549,0.28345450758934027,-9.861449241638185,-0.0016540290089324119,0.0008001923561096191,0.0004172325425315649
0.224397,0.4199689328670502,0.31882658600807195,-9.789430618286133,-0.004906952381134033,-0.0036776068154722457,-0.006100535858422519
0.224475,0.4454602599143982,0.1707786172628403,-9.73345947265625,0.0024482612498104572,-0.0019565231632441287,0.011269750073552132
0.229767,0.4183330535888672,0.12347621470689775,-9.74282741546631,0.014299155212938787,-0.008776784874498846,0.009652970358729362
0.229833,0.4120129942893982,0.2027704417705536,-9.841653823852539,0.00013262032007332894,-0.0027373433113098145,-0.004519521724432708
0.234401,0.4428455531597138,0.3091144263744355,-9.843666076660156,0.01663416624069214,0.005617738235741855,-0.007961691357195379
0.234473,0.4649802148342133,0.23005543649196628,-9.799066543579102,0.004740059841424228,-0.0048860907554626465,-0.0019490720005705955
0.242228,0.4373767375946045,0.08586984127759935,-9.774713516235352,-0.010555983521044256,-0.006560981739312411,-0.01248866319656372
0.242312,0.3869673311710358,0.12429597228765489,-9.77457046508789,0.028523802757263184,0.005225837696343661,-0.020615756511688232
0.245109,0.38722380995750433,0.2386109381914139,-9.893001556396484,0.010199845768511297,-0.0017493960913270712,-0.0036537647247314453
0.245176,0.4091871976852417,0.2754517495632172,-9.814171791076662,0.00904053542762995,-0.004351139068603516,0.009669362567365171
0.249242,0.35033953189849854,0.12439592182636261,-9.753531455993654,0.005583465564996005,-0.005149841774255038,-0.013680756092071533
0.249300,0.35185813903808594,0.09756249189376831,-9.739554405212404,0.020295385271310806,-0.01569539494812489,-0.02152472734451294
0.254718,0.40478947758674627,0.22236697375774386,-9.906922340393068,0.026351213455200195,-0.0021129844244569544,-0.00875592324882746
0.254815,0.40179589390754705,0.35056927800178533,-9.883824348449709,0.011371074244379997,0.012503563426434995,-0.011311471462249756
0.259329,0.424440860748291,0.26519447565078735,-9.76702404022217,-0.011879205703735352,-0.0005558133125305176,-0.003288686973974109
0.259411,0.35574162006378174,0.13677820563316345,-9.774431228637695,-0.005127488635480404,-0.005237757693976165,-0.017131861299276352
0.264214,0.3754629194736481,0.1958011239767075,-9.833076477050781,0.007881225086748602,-0.004713236354291439,-0.028479095548391342
0.264323,0.37863770127296453,0.3327915072441101,-9.915544509887695,0.012367965653538704,0.009383262135088445,-0.022579729557037354
0.269836,0.39525145292282104,0.31153321266174316,-9.847555160522461,0.016944112256169323,-0.0024169681128114466,-0.021623071283102036
0.269901,0.3761962056159973,0.20993562042713168,-9.69850254058838,-0.002938508987426758,-0.000454485445516184,-0.021538138389587402
0.274208,0.37557211518287664,0.21068015694618225,-9.815101623535156,0.001855194917879999,-0.0029802327044308186,-0.024776164442300797
0.275013,0.39632952213287354,0.32928177714347845,-9.872603416442873,-0.009326637722551824,-0.0070095062255859375,-0.02825558371841908
0.279779,0.40556332468986517,0.4222461879253388,-9.866103172302248,-0.002467632526531816,6.705523264827208e-05,-0.017243623733520508
0.279841,0.4427719712257385,0.3606350719928742,-9.791127204895021,0.0010326504707336426,-0.007382036652415992,-0.025653842836618423
0.284268,0.4358200430870056,0.23581120371818542,-9.697561264038086,-0.0011280180187895896,-0.005145370960235596,-0.016222890466451645
0.284330,0.4129265546798706,0.2806943356990815,-9.894715309143068,-0.006805360782891513,0.00858008861541748,-0.025705995038151744
0.289853,0.4259380400180817,0.42099273204803467,-9.87592887878418,-0.003978610504418612,0.007705390918999911,-0.0020876526832580566
0.289934,0.45338514447212225,0.41321414709091187,-9.82331943511963,-0.013141335919499397,-0.0036984689068049197,-0.01936107873916626
0.298645,0.4409489631652832,0.2667319178581238,-9.732439041137695,-0.018662216141819957,-0.001671910285949707,-0.0108376145362854
0.298733,0.4220550060272217,0.23655399680137634,-9.777991294860842,0.011812148615717888,0.01928806491196156,-0.02047419548034668
0.300222,0.40435755252838135,0.3304561972618103,-9.914302825927734,-0.013481080532073975,0.012740492820739746,-0.007605553139001132
0.300289,0.44834753870964056,0.3985705673694611,-9.777417182922365,-0.007291138172149658,0.007428229320794345,0.0046059489250183105
0.304498,0.471801221370697,0.28004822134971624,-9.784032821655273,-0.009056925773620605,0.0037476422730833296,-0.010760129429399969
0.304572,0.4753354787826538,0.24023568630218506,-9.67979145050049,-0.020119547843933105,0.006930531468242408,0.009185075759887695
0.309834,0.4580709040164948,0.26896899938583374,-9.847741127014162,-0.01040399167686701,0.015178325586020948,0.007653236389160156
0.309901,0.4668017029762268,0.3809426426887512,-9.870450019836428,-0.015583634376525879,0.0033214690629392867,0.009924173355102539
0.314100,0.4893391430377961,0.3273293972015381,-9.769062995910646,-0.010204316116869451,-0.0007852911949157715,-0.009495019912719727
0.314180,0.42508161067962646,0.1601975113153458,-9.727752685546875,-0.009080768562853338,0.0017404556274414062,-0.0035524370614439253
0.319514,0.4114227294921875,0.17620386183261874,-9.754096031188967,-0.007855892181396484,0.004187226295471191,-0.011365116573870184
0.319603,0.38967511057853704,0.2725302577018738,-9.918136596679688,-0.012882054783403875,0.008057057857513428,0.009779633022844793
0.324890,0.3999326229095459,0.29587554931640625,-9.754522323608398,-0.0015035275137051942,-0.0029459595680236816,-0.0031679868698120117
0.324961,0.4427808225154877,0.18184043467044833,-9.704343795776367,-0.00867992639541626,-0.0020504000131040816,0.008434057235717773
0.329172,0.38820165395736694,0.12066534161567688,-9.781501770019531,-0.0032588841859251265,-0.01135766599327326,0.0005170702934265137
0.329245,0.41327831149101263,0.22806538641452792,-9.84314823150635,0.02031475305557251,0.0044867401011288175,0.0006318092346191406
0.335083,0.4321223199367524,0.30516040325164795,-9.831086158752443,0.011925398372113706,0.00022202727268449962,-0.01431405358016491
0.335289,0.48571386933326727,0.2276519536972046,-9.763090133666992,-0.004363060463219882,0.0037044291384518147,0.0010162593098357322
0.339247,0.37496033310890203,0.08950697630643846,-9.743811607360842,0.014598668552935125,-0.01785904355347157,-0.002807378303259611
0.339345,0.36121588945388794,0.11236905306577684,-9.774355888366701,0.01141577959060669,-0.00755488919094205,-0.0013113021850585938
0.344163,0.35982173681259155,0.2425023317337036,-9.919233322143555,0.003901124699041248,0.0011205673217773438,-0.015667080879211426
0.344417,0.3942270874977112,0.23484216630458835,-9.850004196166992,0.0058308239094913015,0.0004723667516373098,-0.006413460243493319
0.350066,0.4062527716159821,0.13307052850723267,-9.706713676452638,0.006629526615142822,-0.011609494686126709,-0.014805794693529608
0.350219,0.3693620562553406,0.11370581388473511,-9.76193141937256,0.013867019675672056,-0.017312169075012207,-0.009335578419268133
0.354551,0.39280253648757935,0.21168357133865356,-9.880439758300781,0.014474989846348763,-0.0023484232369810347,-0.02178996987640858
0.354726,0.39335107803344727,0.3587664663791657,-9.901852607727053,0.00034421682357788086,-0.0018075109692290427,-0.02092123031616211
0.359957,0.4093320965766907,0.2878471612930298,-9.77536392211914,-0.001029670238494873,7.450580596923828e-05,-0.014698508195579054
0.360141,0.40067639946937567,0.1370884329080582,-9.735840797424318,0.003962218761444092,-0.004655123222619296,-0.02857596054673195
0.364488,0.3698195219039917,0.2036372721195221,-9.863611221313477,0.003816187614575029,-0.000648200511932373,-0.022257864475250244
0.364658,0.3676914274692536,0.3397768437862397,-9.904404640197756,-0.004464388359338046,0.0064179301261901855,-0.023007394745945934
0.371245,0.3967279493808747,0.33221122622489935,-9.8129358291626,-0.012281536124646665,-0.0015884636668488385,-0.025556977838277817
0.371324,0.37459903955459595,0.19879941642284396,-9.769240379333498,-0.008651615120470526,0.004045665264129639,-0.003509223693981767
0.375097,0.3774530291557312,0.17199723422527316,-9.751096725463867,-0.001513958093710244,-0.004491209983825684,-0.007292628288269043
0.375256,0.38968712091445923,0.32784846425056463,-9.885050773620607,-0.00839680526405573,0.014761090278625488,-0.018563868477940563
0.381925,0.4125462770462036,0.4103962182998657,-9.841099739074709,-0.012995305471122267,0.0007718803244642914,-0.01976490393280983
0.382012,0.4456444680690766,0.3475258946418762,-9.80216693878174,-0.0271528959274292,-0.004097819793969394,-0.0028699636459350586
0.384598,0.46291121840476995,0.26020532846450806,-9.704771995544435,-0.016772748902440075,0.008034706115722656,-0.009962916374206543
0.384662,0.407848596572876,0.25513386726379395,-9.850165367126467,0.00966489315032959,0.009036065079271795,-0.02507418394088745
0.389796,0.43394622206687933,0.4289316833019257,-9.902379989624023,-0.0010952353477478027,0.010667741298675537,-0.012366474606096746
0.389861,0.458937406539917,0.42011150717735296,-9.781749725341797,-0.008536873385310173,-0.00424683140590787,-0.020721551030874252
0.394109,0.4123702645301819,0.25448945164680487,-9.73222064971924,-0.013598799705505371,-0.012265144847333433,-0.01582056097686291
0.394195,0.42170014977455145,0.23780199885368347,-9.791887283325195,0.00701844645664096,-0.001274049049243331,-0.002148747676983476
0.399547,0.3931628465652466,0.3411068916320801,-9.914291381835938,0.0017955900402739646,-0.016257168725132946,-0.004291534423828125
0.399610,0.4551285803318024,0.39874342083930975,-9.776072502136232,-0.0194355808198452,0.005847215186804534,-0.012373922392725945
0.404931,0.4611204266548157,0.3179720640182495,-9.725820541381836,-0.01262277364730835,0.0019878151360899214,-0.00707656191661954
0.404990,0.44512051343917847,0.21939799189567566,-9.748927116394045,-0.005428493022918701,0.005303324665874244,0.012411179021000862
0.409177,0.4578610062599182,0.2596684694290161,-9.849100112915039,-0.013658404350280762,-0.0010609626770019531,0.0066608195193111905
0.409234,0.46142414212226873,0.38216832280159,-9.882924079895021,-0.015486777760088445,0.01571476459503174,-5.513429277925753e-05
0.414564,0.5027621984481812,0.33312922716140747,-9.769158363342287,-0.03152042999863625,-0.005874037742614746,-0.0030934810638427734
0.414655,0.42536360025405884,0.15745641291141513,-9.709697723388672,-0.011080504395067694,0.007560849189758301,-0.009404123760759832
0.420173,0.3949749171733857,0.17179402709007263,-9.784518241882326,0.003561377990990877,0.008603932335972786,0.006820262875407935
0.420237,0.39402562379837036,0.275231808423996,-9.862656593322756,-0.0039413562044501305,0.00142008054535836,-0.011676548048853874
0.424412,0.40241405367851263,0.29689297080039984,-9.796178817749023,0.015598536469042303,-0.0004336237907409668,-0.002758204936981201
0.424474,0.42943739891052246,0.17916010320186618,-9.6959228515625,-0.005605815909802914,-0.0019863250199705367,0.0095367431640625
0.429181,0.41554123163223267,0.11555726826190948,-9.756662368774414,-0.002186000347137451,-0.0020474200136959553,-0.007733704056590796
0.429248,0.4188098013401032,0.21075662970542908,-9.851444244384766,-0.0013887885725125673,0.005154311656951904,-0.00767856976017356
0.435347,0.4359633624553681,0.3266367614269257,-9.843691825866701,0.012281537055969238,0.0071391467936337,-0.006914139259606601
0.435417,0.4731766879558564,0.245010182261467,-9.782511711120607,0.0010818244190886619,-0.015325846150517464,-0.021778048947453502
0.439781,0.3968849778175354,0.09527559578418732,-9.716214179992678,-0.0006109476089477539,-0.013312699273228645,-0.012622776441276075
0.439878,0.36946734786033636,0.1300944983959198,-9.76198482513428,-0.004452467430382968,-0.0024333596229553223,-0.012928248383104803
0.444410,0.3724111318588257,0.21688193082809448,-9.89698886871338,0.009688735939562322,0.011892616748809814,-0.012621283531188965
0.444829,0.403672456741333,0.2660739123821259,-9.840476989746094,-0.0041499738581478604,0.003415346145629883,-0.009870530106127264
0.449711,0.40208959579467773,0.16366587579250338,-9.74427890777588,0.017665326595306396,0.0027298927307128906,-0.01052916143089533
0.449777,0.38841202855110174,0.11801512539386749,-9.744022369384766,0.00014603137969970703,-0.004644692409783603,-0.026081502437591553
0.454136,0.4128806293010712,0.22246925532817843,-9.904212951660156,0.016689302399754528,-0.003910064697265625,-0.020071864128112793
0.454195,0.404563456773758,0.34663712978363037,-9.889374732971193,0.0016435983125120401,0.00890940520912409,-0.01697540283203125
0.459936,0.4271261394023896,0.26645535230636597,-9.764275550842287,-0.0033169991802424197,-0.005309284199029208,-0.012286007404327393
0.460016,0.4086228013038635,0.1544312834739685,-9.762332916259766,0.0003650784201454372,-0.003856420051306486,-0.010290740989148619
0.464522,0.38106149435043335,0.17702417075634005,-9.81776523590088,0.006748736836016178,-0.001405179616995156,-0.00947862956672907
0.464588,0.36208620667457586,0.3368658125400544,-9.925177574157717,-0.0016674399375915527,-0.0044673685915768155,-0.03130584955215454
0.470130,0.3992575109004975,0.3279404044151306,-9.812952995300295,0.0014215707778930664,-0.01781284809112549,-0.02460032887756825
0.470214,0.3909712731838227,0.22460156679153442,-9.738903045654297,-0.004829466342926025,0.011202693916857244,-0.007116795517504215
0.474957,0.3800018727779389,0.19211579859256747,-9.772019386291506,-0.004912913776934147,0.004032254684716464,-0.022248929366469387
0.475064,0.3924233913421631,0.31706368923187256,-9.88640880584717,-0.008343161083757879,0.011342763900756836,-0.017435846850275997
0.479446,0.39221811294555664,0.42224544286727905,-9.824384689331055,-0.000675022543873638,-0.001767277834005654,-0.013720989227294922
0.479506,0.4753466844558716,0.34335601329803467,-9.803746223449709,-0.001651049009524286,-0.014601649716496468,-0.013978780247271063
0.485436,0.4412332475185395,0.24646790325641635,-9.715703010559084,-0.005790592636913062,0.005108118988573551,-0.020842257887125015
0.485498,0.44557714462280273,0.278275728225708,-9.867136001586914,-0.003802776336669922,0.003968179691582919,-0.017061829566955566
0.490408,0.4272132217884064,0.42900002002716064,-9.896781921386719,-0.00826418399810791,0.011426210403442383,-0.01644641347229481
0.490538,0.45605701208114624,0.39978632330894476,-9.814967155456545,-0.013287366367876531,-0.007784366607666016,-0.001640617963857949
0.494422,0.42226165533065796,0.2411770671606064,-9.697521209716797,-0.017473103478550914,-0.004351139068603516,-0.015379490330815315
0.494495,0.3855222463607788,0.20013907551765442,-9.767916679382326,0.0008672475814819336,0.009299815632402899,-0.014355780556797981
0.499820,0.4096869230270386,0.35608595609664917,-9.911663055419922,-0.013831257820129395,0.0050261616706848145,0.001113116857595742
0.499898,0.4414517283439636,0.39991265535354614,-9.805140495300295,-0.02168118953704834,0.014626980759203436,-0.011013448238372803
0.504384,0.47050359845161444,0.2897549867630005,-9.747976303100586,-0.016051532700657848,-0.004857778549194336,-0.006058813072741032
0.504443,0.45090895891189575,0.20364350080490112,-9.707258224487305,-0.020334120839834213,0.002083182102069259,0.005713104270398617
0.509773,0.4482332468032837,0.2567289471626282,-9.864303588867188,0.0011488796444609763,-0.0025779011193662886,0.006820261478424072
0.509848,0.4612636864185334,0.4117082953453064,-9.87055778503418,-0.003182887565344572,0.003942846786230803,0.005108117125928402
0.514134,0.471621185541153,0.33815851807594305,-9.753729820251467,-0.014387072995305061,-0.012047591619193556,0.0013723972951993348
0.514221,0.43320795893669134,0.16701607406139377,-9.73475456237793,-0.016573067754507065,-0.0004723667225334794,0.016616281121969223
0.519673,0.41833436489105225,0.1597814112901688,-9.77072525024414,0.004996360279619694,0.020857159048318863,0.020825864747166637
0.519752,0.4125340878963471,0.31558009982109075,-9.900416374206545,0.0039905314333736905,0.0019997358322143555,0.01085102651268244
0.525274,0.42260921001434326,0.30400905013084417,-9.790778160095217,0.00015944243932608518,-0.016666948795318604,0.01178830862045288
0.525430,0.41551068425178533,0.1492443233728409,-9.71932888031006,0.0014007091522216797,-0.01642704196274281,0.0014156103134155273
0.530315,0.40609604120254517,0.10449150204658508,-9.76904296875,0.00967830326408148,-0.005622208584100009,-0.008349118754267693
0.530390,0.4068684875965119,0.2013492435216904,-9.811075210571289,0.011262297630310059,0.009785593487322332,-0.01255720853805542
0.535257,0.4290305972099304,0.2994570732116699,-9.864369392395021,0.014401971362531187,-0.0036522746086120605,-0.011941788718104362
0.535328,0.4475968778133393,0.22856676578521729,-9.787842750549318,0.008165834471583366,0.0016182659892365339,-0.0035434956662356853
0.539694,0.4050105810165405,0.11129556596279144,-9.734362602233888,0.012831391766667366,0.003486872185021639,-0.015825035050511364
0.539769,0.3720557391643525,0.11892344057559967,-9.786935806274414,0.021947920322418213,-0.002288818592205644,-0.02009570598602295
0.544116,0.39932271838188177,0.23480546474456787,-9.905554771423342,-0.0003680586814880371,0.009527803398668768,-0.01368075702339411
0.544191,0.3822936117649079,0.24721609055995944,-9.801399230957031,-0.00791996717453003,0.000920891936402768,-0.015044214203953743
0.549784,0.36954575777053833,0.14233547449111938,-9.709313392639162,0.007316470611840487,-0.006289780605584384,0.0017747282981872559
0.549892,0.34799766540527344,0.10569135099649431,-9.753436088562013,0.0045999884605407715,0.002098083728924394,-0.006048381328582764
0.554130,0.39940541982650757,0.2427761405706406,-9.881999969482422,0.009053946472704412,0.0024303793907165527,-0.009562075138092041
0.554205,0.40159198641777044,0.3333364725112915,-9.88375759124756,-0.01166313886642456,-0.006562471855431796,-0.013239681720733643
0.559934,0.4213497042655945,0.25670787692070013,-9.783649444580078,0.013738871552050115,-0.02011358924210072,-0.015883147716522217
0.560041,0.39505529403686523,0.1610250174999237,-9.7664270401001,0.013148785568773748,-0.0096052885055542,-0.020381810143589977
0.564117,0.37394258379936224,0.20097535848617554,-9.856690406799318,0.01634210161864758,0.0016078350599855185,-0.029529627412557602
0.564215,0.3824617862701416,0.335690051317215,-9.926684379577638,-0.00922829005867243,0.0035375356674194336,-0.03756434097886086
0.569585,0.41810151934623724,0.3616937100887299,-9.82707405090332,0.0029146671295166016,-0.01106560230255127,-0.023676456883549694
0.569692,0.36920318007469183,0.19063957035541537,-9.762226104736328,-0.005118549335747958,-0.0014454126358032227,-0.01326501462608576
0.575164,0.37067398428916937,0.20821815729141235,-9.742881774902344,0.001792609808035195,0.006029009819030762,-0.009906291961669922
0.575302,0.39487788081169134,0.3115185499191284,-9.908622741699219,-0.008754433132708074,0.005167722702026367,-0.022701920941472057
0.580729,0.4193837642669678,0.41162818670272827,-9.842536926269531,0.0012844798620790243,0.0026404852978885174,-0.01732408814132214
0.580822,0.449993371963501,0.3648947477340698,-9.755088806152344,6.854533421574162e-05,0.014615057036280632,-0.02894699387252331
0.584312,0.4383841454982758,0.23941127955913546,-9.744790077209474,0.010505318641662598,0.0026732685510069136,-0.0026270744856446986
0.584380,0.44581013917922974,0.27979421615600586,-9.846324920654297,-0.009950996376574041,0.013202430680394173,-0.008478761650621893
0.589312,0.4151892066001892,0.41825371980667114,-9.899434089660646,-0.013436377979815008,0.030520556494593624,-0.0030621886253356934
0.589381,0.45080435276031494,0.3931974172592163,-9.802408218383789,-0.016695262864232067,-0.0004291534423828125,-0.004935265053063632
0.594963,0.43983337283134466,0.2409481406211853,-9.73093891143799,-0.003299117321148515,0.005951523780822754,-0.005002319812774658
0.595034,0.4097225964069367,0.21782769262790683,-9.779237747192383,-0.007024407386779785,0.014363230206072332,-0.009356439113616943
0.599706,0.4057517349720002,0.35072845220565796,-9.897732734680178,-0.008003413677215576,0.00489801075309515,0.010333954356610777
0.599800,0.42889258265495306,0.4213225245475769,-9.819032669067383,-0.018163025379180908,-0.0032603743020445113,-0.013267995789647102
0.605167,0.47333788871765137,0.2871288359165192,-9.743809700012209,-0.02226830087602139,0.001873076194897294,-0.006139279343187809
0.605248,0.45636734366416937,0.238644614815712,-9.718521118164062,-0.02055913209915161,0.018958749249577526,0.004602968692779541
0.609512,0.4567808508872986,0.2839376628398896,-9.807552337646484,-0.002524256706237793,0.007270277477800846,0.018517674878239635
0.609580,0.4465601444244385,0.39011794328689575,-9.878693580627443,-0.009246171452105047,0.020278990268707275,0.002034008735790849
0.615426,0.4688439965248108,0.3248715698719025,-9.761983871459961,-0.02624244056642056,-0.013446809723973274,0.00018775463104248047
0.615556,0.4187015891075134,0.1589268445968628,-9.67218017578125,-0.004790722858160735,0.0004842876805923879,0.022400913760066036
0.619941,0.3935250937938691,0.17723341286182406,-9.79008197784424,-0.005836783908307552,0.0016063449438661337,0.012935698963701727
0.620032,0.4061940014362336,0.28878518939018255,-9.869729995727539,-0.0045210118405520925,0.008293984457850456,-0.0023379924241453414
0.624529,0.44594100117683416,0.30426234006881714,-9.779810905456545,-0.009703636169433594,0.0043213372118771085,0.0216901320964098
0.624614,0.43337437510490423,0.1468685269355774,-9.718017578125,-0.010226666927337646,-0.0023499133531004195,-0.0042185187339782715
0.631955,0.3928624987602234,0.10212778300046922,-9.73008918762207,-0.012485682964324951,0.0029861927032470703,0.004601479042321444
0.632029,0.41334068775177,0.22797720134258273,-9.872288703918459,0.012174247764050962,0.01786351203918457,-0.00948459003120661
0.635649,0.4210719764232636,0.32269480824470526,-9.817214012145998,0.00606924295425415,-0.008164345286786558,-0.0237539429217577
0.635784,0.4745796322822571,0.21817804872989657,-9.765768051147461,-0.010798871517181396,-0.02557635866105557,0.00014901161193847656
0.639562,0.38741174340248113,0.09381125122308732,-9.756387710571289,0.0015273693716153505,0.005118549335747958,-0.0010192394256591797
0.639666,0.39263153076171875,0.12175796926021576,-9.795398712158203,0.011706352233886719,0.02617687173187733,0.0018656253814697266
0.645237,0.38711005449295044,0.2534065246582031,-9.87642002105713,0.011803209781646729,-9.983780182665215e-05,-0.0027939679566770796
0.645317,0.4103603661060334,0.25641512870788574,-9.852971076965334,0.004558266606181861,0.0008210540981963277,-0.01253038924187422
0.649657,0.39665493369102484,0.15181551873683932,-9.724768638610842,0.0023558738175779585,-0.008229912258684637,-0.012177228927612305
0.649742,0.33988016843795776,0.10299442708492279,-9.731161117553711,0.014561415649950506,-0.002193450927734375,-0.014251471497118475
0.655245,0.41314172744750977,0.2009553611278534,-9.898565292358398,0.01497119851410389,0.008447469212114813,-0.0165745634585619
0.655334,0.40701377391815186,0.35080331563949585,-9.869986534118654,-0.0035643577575683594,-0.008808077313005926,-0.013300776481628418
0.659502,0.4434467256069184,0.2705539166927338,-9.758842468261719,-3.5762786865234375e-05,-0.004883111454546452,-0.01756549067795277
0.659565,0.41019386053085327,0.13554659485816956,-9.774750709533693,-0.000807642994914204,0.011298060417175293,-0.021125374361872677
0.664870,0.37989717721939087,0.18350671231746676,-9.823324203491211,0.020453331992030147,0.014053283259272575,-0.02254098281264305
0.664969,0.39195680618286133,0.3479838073253632,-9.92123317718506,-0.009475648403167725,0.010721386410295965,-0.021694600582122803
0.669153,0.4004187881946564,0.33476465940475464,-9.831022262573242,-0.00814646575599909,-0.018036367371678356,-0.003556907642632723
0.669236,0.3824257254600525,0.20151656866073608,-9.770695686340334,-0.0032201411668211226,-0.018465518951416016,-0.022891165688633922
0.674517,0.36620837450027466,0.1947353482246399,-9.770572662353516,-0.005356968380510807,-0.015549364499747755,-0.02094209380447865
0.674586,0.3965102136135102,0.32249739766120916,-9.86425304412842,0.0019460918847471476,0.001345575205050409,-0.030913952738046646
0.679937,0.42081373929977417,0.4103572964668274,-9.82034683227539,-0.003489852184429765,0.004084408748894931,-0.034877657890319824
0.680003,0.44847717881202703,0.321782797574997,-9.79931640625,-0.016020238399505615,0.0012069941731169822,-0.007198750972747803
0.684254,0.43028724193573,0.25054904818534857,-9.697612762451172,-0.00575631856918335,-0.005209446419030429,-0.015194715000689031
0.684319,0.4375101923942566,0.2876746356487275,-9.846305847167969,0.0043541183695197105,0.0028640034142881636,-0.031509995460510254
0.689972,0.4202157258987427,0.4316757321357727,-9.903694152832031,-0.013376773335039617,0.002206862205639482,-0.014762580394744873
0.690056,0.4442101418972016,0.4106341898441315,-9.783002853393555,-0.007160007953643799,0.012049079872667791,-0.01938045024871826
0.695247,0.4436886012554169,0.24644662439823153,-9.736526489257812,-0.019001962617039684,-0.0050663938745856285,-0.006902217864990234
0.695318,0.4190551936626435,0.220614492893219,-9.786242485046388,-0.018246471881866455,-0.004428625572472812,-0.00037997966865077615
0.699516,0.4028088450431824,0.36830726265907293,-9.915828704833984,-0.016982853412628174,0.0026658177375793457,-0.006338954437524081
0.699580,0.4484313130378723,0.3877025246620178,-9.759346008300781,0.004753470420837402,0.0013887883396819236,0.009846687316894531
0.704902,0.492215245962143,0.2978459596633911,-9.786990165710451,-0.015263257548213005,0.012420116923749449,-0.007772446144372226
0.704990,0.46705481410026556,0.22903135418891907,-9.701908111572266,-0.004942715167999268,-0.007918477989733221,0.00013262033462524414
0.709254,0.44024187326431274,0.27840998768806463,-9.824087142944336,-0.0027611847035586834,-0.0032439823262393475,-0.011222063563764097
0.709340,0.46938425302505493,0.3928018808364868,-9.889951705932617,-0.004978477023541927,0.008089841343462469,0.012391805648803711
0.714888,0.5229856967926025,0.3422313928604126,-9.77627182006836,-0.006130338180810214,-0.010089576244354248,0.005662441253662109
0.715034,0.4187642633914948,0.15737491846084595,-9.698535919189453,0.008353589102625847,0.007537006866186858,0.005067883990705013
0.719163,0.3937804996967316,0.1463052183389664,-9.748321533203125,0.0017091633053496482,-0.005377829540520907,0.006489455699920654
0.719335,0.38415825366973877,0.2682561576366425,-9.893117904663086,0.004498660564422607,-0.0071406359784305104,0.015035269781947136
0.724575,0.4198709428310395,0.2956861555576325,-9.807391166687013,0.011889638379216194,-0.015430155210196974,0.0010564924450591209
0.724655,0.4279948770999909,0.18061031401157382,-9.682044029235842,-0.0112533550709486,-0.007516145240515471,0.0017717480659484863
0.729938,0.3966511189937592,0.1558899134397507,-9.746978759765625,-0.003485381836071611,0.006879866588860751,0.01360177993774414
0.730054,0.41202419996261597,0.201271653175354,-9.840261459350586,0.009654463268816473,-0.0006034971447661519,0.007964671589434149
0.734322,0.4413200616836548,0.2861396968364716,-9.878258705139162,0.010865926742553711,-0.0027820470277220015,0.014612081460654737
0.734389,0.45719659328460693,0.21523456275463107,-9.758697509765625,0.004318356513977051,-0.0064954166300594815,0.005003809928894043
0.740312,0.40639993548393255,0.11959814280271532,-9.727466583251953,0.0033810737077146773,0.000813603459391743,0.005690752528607845
0.740618,0.3773142695426941,0.1259201914072037,-9.795326232910156,0.00029653313686139887,-0.012041628360748291,0.005555153358727694
0.744373,0.36969417333602905,0.19678565859794617,-9.903833389282227,0.004784762859344482,0.006003678310662509,-0.0066608195193111905
0.744446,0.3776224553585053,0.25634002685546875,-9.83334732055664,0.00979304313659668,-0.02538860030472279,-0.007008016109466553
0.749880,0.37100011110305786,0.16396380960941317,-9.706613540649414,-0.002717971336096525,0.0020042057149112225,-0.00960975792258978
0.749951,0.36552512645721436,0.11651565134525299,-9.763290405273438,0.007280707824975253,0.000788271427154541,-0.005869566928595305
0.754245,0.3831944465637207,0.1942126899957657,-9.878931999206545,0.012709201313555242,-0.0109940767288208,-0.013330578804016113
0.754318,0.3937589824199677,0.310058206319809,-9.868357658386232,0.014069677330553533,-0.0060707321390509605,-0.008279086090624334
0.759651,0.4418281018733979,0.29332226514816284,-9.761710166931154,0.011065604165196419,-0.015501679852604866,-0.008729101158678533
0.759753,0.39368271827697754,0.16776368021965027,-9.766447067260742,0.008817017078399658,-0.0019669535104185347,-0.013281406834721565
0.765046,0.386227011680603,0.19165587425231934,-9.860878944396974,0.007310510147362948,0.0037491321563720703,-0.01700371503829956
0.765118,0.40403950214385986,0.34509754180908203,-9.924081802368164,0.0038906936533749104,-0.006289780605584384,-0.02920478582382202
0.769431,0.41696542501449585,0.33616137504577637,-9.820016860961914,0.0008419157820753754,-0.0074788942001760015,-0.028516355901956558
0.769502,0.3759573698043823,0.1958617866039276,-9.769229888916016,0.012576580978929998,0.0008642673492431641,-0.004379451740533114
0.775282,0.34062379598617554,0.1973300278186798,-9.764863967895508,-0.002720952266827226,-0.004364549182355404,-0.023421641439199448
0.775358,0.4096660614013672,0.34635835886001587,-9.937993049621584,0.012983381748199463,0.00785589311271906,-0.008188188076019287
0.779795,0.4328538179397583,0.4508107900619507,-9.831680297851562,-0.005960465874522925,0.002893805736675859,-0.02707243338227272
0.779896,0.46588796377182007,0.35950350761413574,-9.787094116210938,-0.0008329750853590668,-0.0058457255363464355,-0.006449223030358554
0.784319,0.45588576793670654,0.2314891964197159,-9.736556053161623,0.003357231849804521,-0.009289383888244629,-0.03217458724975586
0.784393,0.44564390182495117,0.2796023488044739,-9.83800792694092,0.005610287655144931,-0.006078183650970459,-0.0194698590785265
0.789851,0.4362151026725769,0.45320615172386175,-9.917768478393555,-0.010322035290300848,-0.013382733799517156,-0.018802285194396973
0.789930,0.46861106157302856,0.40947413444519043,-9.77621364593506,-0.016553701832890514,0.00367164658382535,-0.01265853922814131
0.794266,0.43015265464782715,0.22468841075897217,-9.737765312194826,-0.006610154174268246,-0.0023365023080259566,-0.019176302477717403
0.794348,0.37303385138511663,0.20164623856544495,-9.77756977081299,-0.016240777447819713,-0.0022664666175842285,-0.00013113023305777463
0.799779,0.42721736431121826,0.38721355795860296,-9.911890029907227,-0.0139653692021966,0.0028848650399595503,0.013428926467895508
0.799864,0.4479825496673584,0.4443923830986023,-9.790091514587404,-0.020991267636418346,-0.004270672798156738,-0.00785589311271906
0.805095,0.46754711866378784,0.27753204107284546,-9.785389900207521,-0.01672804541885853,-0.010506808757781982,-0.012724101543426514
0.805185,0.4574846625328064,0.2033468782901764,-9.729507446289062,-0.0013083220692351463,-0.0030487775802612305,0.007244945038110019
0.809427,0.45302873849868774,0.2530235350131989,-9.799064636230469,-0.007742644753307105,0.01565218158066273,0.0027105212211608887
0.809492,0.46924930810928345,0.39701563119888306,-9.884414672851562,-0.013116001151502134,-0.004352628253400326,0.006094574462622405
0.814762,0.4826891124248505,0.335601806640625,-9.753778457641602,-0.010672211647033691,-5.215406781644561e-05,0.00010430813563289122
0.814841,0.415935754776001,0.18050822615623474,-9.708324432373047,-0.02484172768890858,0.020778179168701172,0.010897220112383367
0.819329,0.3936285078525544,0.15149845182895663,-9.794147491455078,0.002804398769512773,-0.000236928477534093,0.013683736324310303
0.819468,0.37384629249572754,0.27520298957824707,-9.863916397094727,-0.00014007092977408322,0.022269785404205322,0.007514656055718661
0.824754,0.42008784413337713,0.2865786254405976,-9.783744812011719,-0.006847083102911712,-0.004574655555188656,0.0067323436960577965
0.824825,0.4360048174858093,0.14139819145202637,-9.716631889343263,-0.012198090553283691,-0.015836955979466442,0.00017732378910295665
0.830141,0.4210492968559265,0.12188225239515306,-9.766435623168945,0.020037589594721798,0.005941092502325774,0.01964568719267845
0.830216,0.42144945263862615,0.2134514003992081,-9.857025146484375,0.002092123031616211,0.004692376125603915,0.000831484911032021
0.834549,0.4171608090400696,0.3065981566905976,-9.821288108825685,0.004349648021161556,-0.0016078354092314842,-0.003142655128613115
0.834630,0.44754379987716675,0.19239537417888644,-9.780766487121584,-0.00943988561630249,-0.016666950657963756,-0.015239417552947998
0.839333,0.4049386978149414,0.08580293506383897,-9.749528884887695,0.002841651439666748,-0.0024810433387756348,-0.011564792133867742
0.839410,0.36113640666008,0.13629902899265292,-9.770299911499023,0.026303529739379883,-0.004333257209509612,0.006784497760236263
0.844990,0.3897640407085419,0.2209814190864563,-9.92210102081299,0.015097859315574171,0.00018179419566877186,-0.002202392090111971
0.845053,0.39960899949073797,0.23523300886154175,-9.813958168029787,-0.016863644123077393,-0.015665592625737194,-0.012736022472381592
0.849438,0.36527103185653687,0.15313193202018738,-9.728752136230469,0.0038772823754698042,-0.01661777310073376,-0.013676285743713379
0.849576,0.3694960772991181,0.10986189544200897,-9.750802993774414,-0.00025331976939924067,-0.00807642936706543,-0.01762211509048939
0.855027,0.40751880407333374,0.21032984554767611,-9.898573875427248,0.01574307680130005,-0.004263222683221103,-0.022532047703862194
0.855092,0.4150526523590088,0.33553400635719305,-9.886653900146484,0.03113598190248013,-0.01582205295562744,-0.007876754738390447
0.859426,0.4284539222717285,0.2554924488067627,-9.754531860351562,0.0175431352108717,-0.021848080679774288,-0.018304582685232162
0.859517,0.390958309173584,0.1397518813610077,-9.759389877319336,-0.007960201241075994,-0.009138882160186768,-0.011512638069689276
0.865051,0.4026627540588379,0.1998113989830017,-9.8277063369751,0.015732647851109508,-0.0007495284080505371,-0.02745390310883522
0.865141,0.36199077963829046,0.33522987365722656,-9.944612503051758,0.015304985456168653,0.00021755698253400624,-0.013692679814994337
0.869223,0.39935979247093206,0.328038901090622,-9.821267127990724,-0.004382431507110596,-0.010026989504694939,-0.01635849662125111
0.869292,0.3894612193107605,0.19869779050350192,-9.751287460327148,0.011610984802246094,-0.0036612160038203005,-0.027236346155405045
0.875066,0.3922033607959748,0.2121920883655548,-9.75136470794678,0.011946261860430242,-0.0031933188438415527,-0.035162270069122314
0.875134,0.3992894589900971,0.3209799528121948,-9.876749038696289,0.011079014278948309,0.006370246410369873,-0.02030432410538197
0.880057,0.41371631622314453,0.41162240505218506,-9.870262145996094,-0.015378001146018507,0.0056058173067867765,-0.0006794929504394531
0.880132,0.4605632424354553,0.3649961650371552,-9.792627334594727,-0.013805928640067579,0.0037625436671078205,-0.018070640042424205
0.884100,0.4371307790279389,0.2734569311141968,-9.70606327056885,-0.012218954972922804,0.006926060654222965,0.001519918441772461
0.884169,0.4279807209968567,0.2713690102100373,-9.860071182250977,0.006242096889764071,0.000846385839395225,-0.011004506610333921
0.889614,0.4340653419494629,0.40375328063964844,-9.881445884704592,-0.022298099473118786,0.0035986311268061404,-0.02275407314300537
0.889681,0.45208278298377996,0.39315205812454224,-9.810742378234865,-0.024136902764439586,-0.0028654932975769043,-0.013950469903647901
0.895088,0.44752228260040283,0.25445803999900823,-9.74215602874756,-0.007610023021697998,-0.007028878200799228,-0.004720688331872226
0.896336,0.4219056963920593,0.24881097674369812,-9.760011672973633,0.0030800700187683105,0.005650520790368319,-0.0009179115295410156
0.900147,0.38936260342597967,0.31822863221168524,-9.91138553619385,-0.0035151846241205935,0.0006765127764083446,0.010433793067932129
0.900218,0.44675841927528387,0.4026927053928376,-9.781600952148438,-0.02294331602752209,-0.005857645533978939,-0.007969140075147154
0.904960,0.48385015130043035,0.3194376230239868,-9.763444900512695,-0.023841859772801403,-0.012549759820103645,-0.03007352724671364
0.905054,0.45080158114433294,0.22787041962146762,-9.711514472961428,-0.01316517870873213,0.005479156970977783,-0.02478212304413319
0.909192,0.4407419860363007,0.27299076318740845,-9.810176849365234,0.0028550622519105677,0.02013892121613026,-0.005424022674560547
0.909260,0.47757467627525335,0.37931758165359497,-9.889956474304201,-0.0012353063793852927,0.0068888068199157715,0.000973045884165913
0.914736,0.4772371947765351,0.32193368673324585,-9.77727794647217,-0.013199447654187681,0.006514786742627621,-0.011868773028254509
0.915407,0.4114756286144257,0.1694505512714386,-9.729087829589844,-0.005528331268578769,-0.0033974647521972656,0.014334917999804022
0.920026,0.40067994594573975,0.15842050313949585,-9.753964424133303,0.005616246722638607,0.009760258719325066,-0.015045701526105406
0.920088,0.38966950774192816,0.2697839438915253,-9.900093078613281,-0.008232892490923406,-0.005918741226196289,-0.006397068966180087
0.924553,0.44837743043899536,0.31465524435043335,-9.79515266418457,0.006127357948571444,-0.012180209159851074,0.002306699752807617
0.924631,0.4375419616699219,0.1668553352355957,-9.70702648162842,0.010763108730316162,0.004859269130975009,0.008182227611541748
0.929688,0.403375655412674,0.0735515281558037,-9.780012130737305,0.003275275463238359,0.0018835071241483094,0.015757977962493896
0.929757,0.4336012601852417,0.20279821753501892,-9.848726272583008,-0.0029087068978697066,-0.011724233627319336,-0.015819074586033825
0.934660,0.42928037047386175,0.32806959748268133,-9.83254623413086,0.0023484232369810347,-0.0013947486877441406,0.007602572441101074
0.934735,0.4650577008724213,0.23288424313068393,-9.7671594619751,-0.001995265483856201,-0.014185906387865545,-0.0016346573829650879
0.939767,0.40340375900268555,0.07074490189552307,-9.763352394104006,0.013677775859832764,-0.013649463653564453,-0.006121397484093905
0.939835,0.3746525943279267,0.12859290838241577,-9.792551040649414,-0.0006914139376021923,-0.002731382381170988,-0.009357928298413755
0.945127,0.38016730546951294,0.25743043422698975,-9.89027500152588,0.013116002082824707,-0.014172495342791082,-0.006683171261101962
0.945215,0.39404705166816717,0.28472486138343817,-9.826618194580078,0.007496773265302181,-0.0064849848859012136,0.007222591899335384
0.949487,0.38698822259902954,0.17600329220294955,-9.719258308410646,0.006224215030670166,-0.015889108180999756,-0.005096197593957187
0.949692,0.3721104562282563,0.09768791496753693,-9.766046524047852,0.0075057148933410645,-0.01592040248215199,-0.0003635883331298828
0.954853,0.40193489193916326,0.19559958577156067,-9.895714759826662,0.012561680749058723,-0.020812453702092174,-0.013673306442797186
0.954942,0.38825565576553345,0.3386850357055664,-9.848997116088867,-0.004903972148895264,-0.007274748291820289,-0.010228157043457031
0.962785,0.41591897606849676,0.27966895699501043,-9.79757308959961,0.007197262253612281,-0.01278668735176325,-0.007107853889465332
0.963013,0.4125848412513733,0.17197395861148837,-9.756869316101076,0.004835427273064853,-0.010116400197148323,-0.018662219867110256
0.964843,0.3552425503730774,0.1889363378286362,-9.838471412658693,0.0025495893787592654,0.004190206527709961,-0.01863837242126465
0.964901,0.36237248778343206,0.34761849045753485,-9.90856456756592,0.00761300465092063,0.012086331844329834,-0.02202093787491322
0.969491,0.39559957385063177,0.3536998927593232,-9.822715759277344,-0.011342764832079412,0.023913381621241573,-0.019668038934469223
0.970565,0.3877102732658386,0.20538373291492465,-9.781846046447756,0.004890561569482089,-0.018531084060668945,-0.02294331975281239
0.975029,0.36656665802001953,0.20549842715263367,-9.74977779388428,-0.0030294060707092285,0.008963049389421942,-0.02293139882385731
0.975140,0.402965784072876,0.3208768963813782,-9.905937194824219,0.004231929779052734,0.00035315754939801996,-0.02246946096420288
0.980078,0.4262721240520478,0.39524930715560913,-9.84807014465332,0.011749563738703728,0.010564923286437988,-0.024373827502131466
0.980165,0.4594826996326447,0.3542368412017822,-9.771760940551758,-0.00299960351549089,0.01526176743209362,-0.014457105658948423
0.984628,0.4368622899055481,0.25996276736259466,-9.735162734985352,-0.007544457912445068,-0.0003606081299949438,-0.020240249112248424
0.984710,0.4385108947753906,0.2848207950592041,-9.876850128173828,-0.0003427267365623266,-0.00870227999985218,-0.008574130944907667
0.990044,0.41488558053970337,0.40722200274467474,-9.906350135803224,0.00478923274204135,0.006166100967675448,-0.013877451419830322
0.990125,0.4631396532058716,0.4000141322612763,-9.771962165832521,-0.004115701187402011,-0.00467449426651001,-0.01728683896362782
0.994496,0.4313805997371674,0.27628111839294434,-9.729639053344727,-0.024771695956587795,-0.007092953659594059,-0.012074410915374756
0.994563,0.4162853658199311,0.24744616448879245,-9.801609992980959,-0.01708120293915272,0.005084275268018246,-0.007779895793646575
1.000165,0.38948768377304077,0.3519615232944489,-9.905964851379396,-0.0061109671369194984,0.011852383613586426,0.006398559082299472
1.000233,0.44976359605789185,0.41333422064781195,-9.759451866149904,-0.0005304813967086376,0.009153783321380615,-0.009569526650011541
1.004671,0.4979545176029206,0.2860107421875,-9.72451686859131,-0.0215873122215271,0.006295741070061923,0.0019282103748992088
1.004767,0.4466800093650818,0.23067402839660645,-9.728151321411133,-0.03014206513762474,0.015878675505518917,0.006994604133069515
1.009236,0.47302377223968506,0.2663587629795075,-9.820072174072266,-0.0008642674074508251,0.00577569054439664,-0.00514984130859375
1.009360,0.4532294273376465,0.3565949499607087,-9.878611564636232,-0.018684566020965576,-0.004172325599938632,0.003737211227416992
1.015262,0.4906077980995178,0.327332228422165,-9.762136459350586,-0.013434887863695623,-0.007294119335711002,-0.0059470534324646
1.015684,0.43868374824523926,0.1697903573513031,-9.716760635375977,-0.018875300884246826,-0.006327033508569003,0.009958446025848389
1.019746,0.40181651711463934,0.15594983100891113,-9.776165008544922,-0.017908215522766113,0.0034749507904052734,-0.009560585953295233
1.019812,0.38429921865463257,0.26573768258094793,-9.87644672393799,-0.0032067301217466597,-0.006179511547088623,0.011764467693865301
1.025154,0.3900336921215058,0.288912981748581,-9.798855781555178,0.0036403539124876265,-0.016987323760986328,-0.003160536754876375
1.025240,0.41038122773170477,0.19400413334369662,-9.684760093688967,-0.011372567154467108,-0.0005841255187988281,-0.013351441361010076
1.030068,0.4050294756889343,0.11311331391334534,-9.732980728149414,-0.017186999320983887,0.000552833080291748,-0.012369454838335516
1.030159,0.4229356646537781,0.2095303982496262,-9.858399391174318,-0.0069335103034973145,0.013464690186083319,0.0017002224922180176
1.035022,0.4356755018234253,0.31722882390022283,-9.857541084289553,0.003802776569500566,-0.00873655080795288,-0.004880130290985107
1.035125,0.47609376907348633,0.22864635288715365,-9.775531768798828,0.01853853464126587,-0.0009655953035689891,0.002518296241760254
1.039467,0.41273358464241033,0.08291156589984894,-9.77317523956299,0.011779368855059149,-0.024856628850102428,0.0026717782020568848
1.040262,0.3732796907424927,0.13927572965621948,-9.775927543640138,0.00948459003120661,-0.006739795207977295,0.009696186520159246
1.044940,0.39130243659019476,0.24937792122364047,-9.879199028015138,0.013813378289341927,-0.0007539989310316743,-0.011591616086661817
1.045007,0.381672203540802,0.2401130944490433,-9.845801353454592,0.008325279690325262,-0.022514164447784424,-0.010459125973284246
1.049307,0.4032604396343232,0.1706726849079132,-9.740157127380373,0.0024989244993776087,-0.005663931835442782,-0.013780592009425163
1.049398,0.3643018305301667,0.11244645714759827,-9.741059303283693,0.012840331532061102,0.006751717068254948,-0.018624963238835338
1.054680,0.39520171284675604,0.21559959650039673,-9.899908065795898,0.02424419112503529,-0.010839104652404785,-0.0016823410987854004
1.054748,0.39892551302909857,0.3345925807952881,-9.882369995117188,0.0012069941731169822,-0.002282857894897461,-0.013855102472007276
1.060143,0.4204879403114319,0.24623642861843112,-9.743341445922852,0.007455050945281982,-0.009202957153320312,-0.011827052570879461
1.060217,0.41403397917747503,0.15161971747875216,-9.773452758789062,0.01034140679985285,-0.008915364742279053,-0.0170245785266161
1.064396,0.3931439518928528,0.194209486246109,-9.858153343200685,0.018383564427495006,0.010053813457489014,-0.011870265007019043
1.064498,0.3835921287536621,0.35590961575508123,-9.910118103027344,0.0060901059769094,-0.012035667896270752,-0.012646618299186231
1.069700,0.39949688315391546,0.33331397175788885,-9.824066162109375,0.006631017196923495,0.0011861323146149518,-0.024612247943878174
1.069780,0.3909876644611359,0.20042657852172852,-9.73880386352539,-0.013749303296208382,0.009983778931200506,-0.011186301708221436
1.075264,0.3814745247364045,0.1771250516176224,-9.785835266113281,0.0019431117689237,0.009021162986755371,-0.01642853021621704
1.075383,0.4085767865180969,0.32636538147926336,-9.901814460754396,0.001049041748046875,0.013367834500968458,-0.019766390323638916
1.080220,0.41897034645080566,0.4533016979694367,-9.86491584777832,-0.005754827987402678,-0.001341104623861611,-0.02048611268401146
1.080284,0.4702585637569428,0.3258426785469055,-9.785586357116701,-0.00048428776790387934,0.0001475214958190918,-0.016963480040431026
1.084117,0.44258460402488714,0.23165060579776767,-9.72259521484375,-0.007116795051842929,0.008741021156311035,-0.00270158052444458
1.085430,0.443903535604477,0.27138614654541016,-9.889319419860842,-0.0034272668417543177,-0.010570881888270378,-0.004424154292792083
1.089643,0.42861989140510565,0.4222818613052368,-9.880115509033203,-0.003652275307103992,0.004933774936944247,-0.011095404624938965
1.089717,0.4452743232250214,0.39293226599693304,-9.824582099914553,-0.01293271780014038,0.002422929042950273,-0.02034902572631836
1.095160,0.42347255349159246,0.23421533405780795,-9.737751960754396,-0.012817978858947754,0.005178153980523349,-0.002607703441753984
1.095312,0.39252305030822754,0.20453841984272006,-9.7332763671875,-0.018835067749023438,0.009524823166429998,0.006301701068878174
1.099510,0.41236430406570435,0.34151971340179443,-9.899113655090334,-0.023692848160862926,-0.0010773540707305076,0.005041062831878662
1.099599,0.47911256551742554,0.4214920997619629,-9.811020851135256,-0.008852780796587469,-0.003199279308319092,-0.00606030272319913
1.105008,0.46747076511383057,0.30575445294380194,-9.802149772644045,-0.02056807838380337,0.002010166645050049,0.002443790901452303
1.105397,0.4418078660964966,0.19426491856575012,-9.691874504089357,-0.019621849060058594,0.02012998051941395,0.0028014183044433594
1.109242,0.468966543674469,0.2636818289756775,-9.835309982299805,-0.009344519115984442,0.014556945301592352,-0.0046759843826293945
1.109328,0.4558827877044678,0.38469442725181585,-9.84683609008789,0.003671645652502775,-0.007846950553357603,-0.0009566544322296977
1.114708,0.49616935849189764,0.3380576670169831,-9.752482414245607,0.010430811904370786,-0.002211332321166992,0.003223121166229248
1.114782,0.4359273314476013,0.16696263849735263,-9.720904350280763,-0.009013713337481024,-0.0047400593757629395,0.01129806134849787
1.120119,0.4354274868965149,0.169265553355217,-9.801419258117678,-0.006578863598406315,-0.003935397602617741,0.010949374176561834
1.120190,0.38458895683288574,0.27916756272315985,-9.861225128173828,0.007012486923485995,0.011251866817474365,0.015181303955614569
1.124549,0.4121543765068054,0.27165597677230835,-9.761433601379396,0.0017061830731108787,-0.008735060691833496,-0.0017285349313169718
1.124642,0.4022208154201508,0.1530479341745377,-9.716472625732422,0.021132826805114746,-0.0018209222471341493,-0.0018298625946044922
1.129975,0.3952076733112336,0.13008642196655273,-9.75242805480957,0.01129210088402033,-0.0017434362089261415,-0.0004351139650680125
1.130058,0.4215290844440461,0.21875467896461487,-9.84872055053711,0.009731948375701904,0.010286272503435613,-0.01780688762664795
1.134428,0.460410475730896,0.30374702811241155,-9.846515655517578,0.01635551638901234,-0.001138448715209961,0.005982816219329834
1.134498,0.46927174925804144,0.21935459971427917,-9.793487548828125,-0.004032254219055176,0.0006556511507369579,-0.010323524475097656
1.140068,0.39519444108009344,0.10063035041093828,-9.74260139465332,0.0005945563898421825,-0.019337238743901256,-0.008447468280792236
1.140243,0.38031673431396484,0.10007354617118835,-9.785524368286133,0.024114549160003662,0.0028505923692137007,-0.0033080577850341797
1.144342,0.3695871829986572,0.23593124747276306,-9.883175849914553,0.009939072653651237,0.0009015203104354442,0.007084012497216464
1.144645,0.3983364403247834,0.2521893382072449,-9.847329139709474,0.014221670106053352,0.00495016621425748,-0.006526709534227848
1.150105,0.3724626302719116,0.15190157294273376,-9.691304206848146,-0.0036805875133723025,-0.002251565689221025,-0.03132671117782593
1.150173,0.362665593624115,0.11926438659429552,-9.735545158386232,0.005537271033972503,-0.0212743878364563,-0.018754603341221813
1.154443,0.3722229599952698,0.20202448964118958,-9.928856849670412,0.014571847394108772,0.003880263073369861,-0.0177875179797411
1.155457,0.405681312084198,0.35490769147872925,-9.857505798339844,9.387732279719786e-05,-0.01752227544784546,-0.023604931309819225
1.159827,0.4121783077716828,0.26911431550979614,-9.76974391937256,-0.00746846292167902,-0.004577637650072575,-0.0016629699384793641
1.159902,0.4412757158279419,0.15611259639263156,-9.75835704803467,0.0019729139748960738,-0.0023603439331054688,-0.023886563256382946
1.165226,0.3728276491165161,0.1999472677707672,-9.809486389160156,-0.005060434807091952,-0.007374584674835205,-0.03046095371246338
1.165358,0.38382279872894287,0.3463214635848999,-9.91007709503174,0.010120870545506477,-0.0030204660724848513,-0.032113492488861084
1.169557,0.38036677241325384,0.3305120170116425,-9.83643436431885,-0.001932680723257363,0.005443394649773837,-0.010897219181060791
1.169642,0.39344048500061035,0.21910960972309115,-9.751392364501953,-0.0008493663626722993,-0.006973743438720703,-0.012229383923113348
1.174891,0.36513707041740423,0.20017972588539124,-9.741425514221193,-0.0024005773011595015,-0.008478760719299316,-0.018152594566345215
1.174983,0.36873430013656616,0.3235732913017273,-9.908514976501467,-0.006662309635430575,-0.019274648278951645,-0.01876354403793812
1.179396,0.4084409177303315,0.41292169690132147,-9.853586196899414,-0.0080868611112237,0.005899370182305575,-0.01366138644516468
1.179495,0.44679707288742065,0.3580348193645478,-9.805013656616211,-0.006042421795427799,-0.0009119512396864594,-0.007605553604662418
1.184667,0.42485436797142034,0.278744101524353,-9.687973976135256,0.0028073790017515425,-0.011001527309417725,-0.021927058696746826
1.184745,0.4334985613822937,0.2780563235282898,-9.8504114151001,0.013761225156486036,0.009016692638397217,-0.010778010822832586
1.190310,0.4202894866466523,0.40178894996643066,-9.942442893981935,-0.0020131471101194624,0.01447796914726496,-0.01481473445892334
1.190403,0.45629358291625977,0.3905487954616547,-9.780215263366701,-0.006809831131249667,-0.009991226717829704,-0.02234279923141003
1.194660,0.4358566403388977,0.2531550228595734,-9.724022865295412,-0.004479289520531894,0.017224248498678207,-0.006043910048902035
1.195165,0.4068980813026428,0.26241335272789007,-9.773845672607422,-0.016738476231694225,0.011111795902252197,0.00561624811962247
1.199487,0.3934427499771118,0.36550733447074896,-9.896336555480959,-0.014641882851719856,0.005967915058135986,-0.013209880329668524
1.199594,0.44294047355651855,0.3902812600135803,-9.796786308288576,-0.0035345561336725955,0.00803917646408081,0.0064387922175228604
1.204989,0.4839814305305481,0.30308243632316595,-9.77308750152588,-0.010383129119873047,0.00814348552376032,-0.006078184116631747
1.205075,0.45205596089363104,0.22093868255615234,-9.726764678955078,-0.005719064734876156,0.0005975365056656302,0.010406969115138054
1.209341,0.4361602365970612,0.2850729823112488,-9.847681045532227,-0.004868209362030029,0.008952617645263672,-0.012049079872667791
1.209489,0.461311548948288,0.39822700619697576,-9.889927864074709,-0.006510317325592041,0.012741983868181707,0.008273124694824219
1.215127,0.5082091093063354,0.34385406970977783,-9.769233703613281,-0.029619038105010986,0.000692904053721577,0.010430813767015936
1.215377,0.4169641137123108,0.1964548081159592,-9.711191177368164,0.0011041760444641113,0.0031858689617365603,-0.01229792833328247
1.219383,0.4003323614597321,0.1368030607700348,-9.785811424255373,0.0001564621925354004,-0.010782480239868164,-0.002302229637280107
1.219443,0.38202753663063055,0.261852502822876,-9.840330123901367,-0.005021691787987948,-0.0004470348358154297,-0.005212426651269198
1.224753,0.4308985471725464,0.29337382316589355,-9.786619186401367,-0.014159085229039192,-0.005516411270946265,-0.004681945312768222
1.224860,0.4252169132232666,0.14666464924812317,-9.695779800415039,0.0047534708864986905,-0.015807151794433594,0.013585391454398634
1.230288,0.3712348639965058,0.06960940361022949,-9.715950012207031,0.002627074718475342,-0.005911290645599365,-0.0014469028683379295
1.231452,0.4037201404571533,0.19031877815723422,-9.863762855529787,0.011463466100394728,-0.005105137825012207,0.014077129773795606
1.234518,0.4290456771850586,0.3187858164310456,-9.832516670227053,-0.0037848951760679488,-0.016123056411743164,-0.004309415817260742
1.234584,0.47727012634277344,0.23007278144359591,-9.794976234436037,0.0013142825337126853,-0.01026839017868042,0.018942357972264293
1.240227,0.41327682137489324,0.07655262202024461,-9.738449096679688,-0.005178153980523349,0.006704033818095923,-0.001430511474609375
1.240396,0.3882635831832886,0.12050424516201019,-9.807872772216797,0.0012055040569975974,0.006853044033050537,-0.007484853733330966
1.244550,0.3882555365562439,0.25607374310493475,-9.905575752258303,0.010606644675135612,-0.004118680488318206,0.005406141746789218
1.244643,0.39173001050949097,0.26465639472007757,-9.794592857360842,0.004675984848290683,0.0026464462280273438,-0.013336540199816229
1.250018,0.37339976429939276,0.1461177319288254,-9.75930690765381,0.002636015182361007,-0.005528330337256194,-0.020907815545797348
1.250110,0.3641475439071655,0.062402866780757904,-9.75891971588135,0.0182226300239563,-0.016815962269902233,-0.013424456119537354
1.254427,0.3819090723991394,0.19950829446315768,-9.88310432434082,0.02131760306656361,-2.9802322387695312e-05,-0.0019162893295288086
1.254881,0.40303683280944824,0.33884257078170776,-9.86574459075928,-0.009009242057800293,-0.014515222050249578,-0.0181540846824646
1.259511,0.4350513219833374,0.2757773995399475,-9.761600494384766,0.008769334293901922,-0.02080202288925648,-0.020131468772888184
1.259656,0.3934866786003113,0.14366649091243747,-9.77468776702881,-0.005228818394243717,-0.017376249656081203,-0.010891260579228401
1.264781,0.37951007485389715,0.185063049197197,-9.835833549499513,0.0035941603127866988,-0.004887580871582031,-0.007887184619903564
1.264870,0.3648340106010437,0.35026901960372925,-9.92247200012207,0.0120848398655653,0.00229924893938005,-0.017544623464345932
1.269196,0.3886653184890747,0.34836015105247503,-9.799072265625,-0.0077888378873467445,0.0021666288375854492,-0.025269394740462307
1.269659,0.39215692877769476,0.18780653178691867,-9.779015541076662,0.01357048936188221,-0.00228434824384749,-0.020463764667510986
1.274664,0.374534159898758,0.2120769172906876,-9.779003143310547,0.006157161202281714,0.00606924295425415,-0.005485118366777897
1.274748,0.4154469966888428,0.3440172970294953,-9.857511520385742,0.007912516593933105,0.0069573535583913335,-0.030028823763132095
1.280081,0.3999179303646088,0.41145187616348267,-9.867417335510256,0.0025853514671325684,-0.014244019985198975,-0.0171124953776598
1.280149,0.4713666737079621,0.33133760094642645,-9.80088996887207,-0.007686019409447909,-0.013025104999542236,-0.023414196446537975
1.284367,0.43861764669418335,0.2385559529066086,-9.711478233337404,-0.015497210435569288,0.009542703628540039,-0.0104561448097229
1.284431,0.4429035782814026,0.2904689013957978,-9.850523948669435,-0.0031411652453243732,0.004827976692467929,-0.008687376976013184
1.289982,0.4284024238586426,0.4343578517436982,-9.885719299316406,-0.008028746582567694,-0.0002682209305930883,-0.010350346565246582
1.290057,0.47125872969627386,0.4080266654491425,-9.785933494567873,-0.003294646972790361,0.0018715858459472656,-0.015163422562181951
1.294188,0.4357635080814362,0.26123058795928955,-9.718494415283203,-0.010344386100769043,0.005596876610070468,-0.01670569367706776
1.294264,0.40705677866935736,0.22315382957458496,-9.782023429870607,-0.005213916301727295,0.013788045383989813,0.0022679567337036133
1.299834,0.397463321685791,0.34106141328811646,-9.933725357055664,-0.0021010637283325195,0.00645071268081665,-0.011113286949694158
1.299906,0.43086680769920355,0.3729786574840546,-9.77165412902832,-0.015528501011431219,0.016561150550842285,-0.015465917997062208
1.304327,0.45024034380912786,0.2803245186805725,-9.736709594726562,-0.018671151250600815,-0.005622207652777434,-0.002129376167431474
1.304419,0.44564521312713623,0.21803238987922668,-9.730865478515625,-0.010623037815093994,0.024883450940251354,0.0031888484954833984
1.309577,0.4623171985149384,0.28400650620460516,-9.81174087524414,-0.008869172073900701,0.0202327985316515,0.005771219730377197
1.309644,0.4545847773551941,0.40111374855041504,-9.881562232971193,-0.020381808280944824,0.013540686108171942,0.00921487808227539
1.315363,0.4823500812053681,0.3139795660972595,-9.774528503417969,-0.01737922430038452,-0.010445714928209783,0.020840765908360485
1.315522,0.42373114824295044,0.1764737367630005,-9.729196548461914,-0.02520233392715454,0.005702674854546786,0.01386404037475586
1.319554,0.4252104163169861,0.1599167287349701,-9.759662628173828,0.0011548398761078717,0.01861601881682873,0.003911553882062435
1.319617,0.40190833806991577,0.26721581816673284,-9.907094001770021,-0.013898313045501709,0.005079806316643954,0.008171796798706055
1.324937,0.41466894745826727,0.28254586458206177,-9.797577857971193,-0.015833975747227672,-0.003950297832489014,-0.007218122482299805
1.325001,0.41874507069587713,0.15219277143478394,-9.692970275878906,-0.014024971984326841,0.008681414648890495,0.007461010944098235
1.329273,0.40064799785614014,0.10989424586296082,-9.762097358703615,-0.0029742724727839236,-0.0020578505937010054,-8.195638656616211e-05
1.329340,0.42027050256729126,0.2242024540901184,-9.834848403930664,0.009059905074536802,0.011260805651545525,-0.01875013299286366
1.338448,0.43082657456398016,0.2969315350055695,-9.824109077453615,0.019837912172079086,0.003090501064434648,0.00780820893123746
1.338537,0.44625392556190496,0.20313021540641785,-9.7835693359375,0.0015735626220703125,-0.007776915561407805,0.010392069816589355
1.340702,0.39697539806365967,0.08847841620445251,-9.709249496459961,0.011935831047594549,-0.007818640209734442,0.007072092033922672
1.340786,0.37490904331207275,0.10666832327842712,-9.789683341979982,0.03276467323303223,0.007763506378978492,0.009478628635406494
1.344189,0.40322011709213257,0.2576809525489807,-9.909844398498537,-0.006152690388262272,0.001861155382357538,-0.024330621585249904
1.344264,0.36453449726104736,0.23773796856403354,-9.827627182006836,-0.00973045825958252,-0.0020623209420591597,-0.01766383647918701
1.349715,0.3954314589500427,0.11406985670328142,-9.725988388061523,0.003097952110692859,-0.0047087674029171476,-0.00832676887512207
1.349810,0.36037373542785645,0.1029973402619362,-9.724345207214357,0.01611560583114624,0.0024303791578859095,-0.005409121513366699
1.355497,0.37368154525756836,0.2061867564916611,-9.909452438354492,0.00820457935333252,0.00884085986763239,-0.015954675152897838
1.355589,0.40997153520584106,0.3414795398712158,-9.856089591979982,0.002211332321166992,-0.0015586615772917869,-0.005213916301727295
1.359827,0.4298844337463379,0.2664007544517517,-9.762899398803711,-4.917382466373965e-05,-0.009581444784998894,-0.018990037962794307
1.359892,0.390929639339447,0.14892372488975525,-9.7774658203125,0.004781783092767001,-0.001959502696990967,-0.02966672368347645
1.364101,0.3875613808631897,0.21026162803173068,-9.845704078674318,0.028866533190011978,-0.002476573688909412,-0.01997053809463978
1.364162,0.3850589394569397,0.3518211245536804,-9.921215057373047,0.004094839096069336,-0.0008210540399886669,-0.029887259006500244
1.369445,0.4156372547149658,0.34562268853187567,-9.824206352233888,-0.0027000906411558394,-0.004982948768883944,-0.021445751190185547
1.369515,0.39212846755981445,0.20713579654693604,-9.740236282348633,-0.014466048218309881,-0.004254281520843506,-0.02747476287186146
1.375055,0.3773854076862336,0.17872418463230136,-9.756689071655273,-0.007556379772722721,-0.008016825653612615,-0.019070507958531383
1.375233,0.4057534039020539,0.31937992572784424,-9.918437957763672,0.01182407420128584,0.004780292510986328,-0.013200941495597364
1.380251,0.41229957342147827,0.4143058359622956,-9.848067283630373,5.662442345055752e-05,-0.0029981138650327925,-0.01281053014099598
1.380327,0.4579202234745026,0.3379503786563874,-9.78141975402832,-0.0060573224909603604,0.0013530254364013672,-0.030262770131230358
1.384654,0.423353910446167,0.24516549706459045,-9.732241630554201,-0.01110136602073908,-0.0025659804232418537,-0.014832617715001106
1.384748,0.42682355642318726,0.26875528693199163,-9.85171127319336,0.0009641051292419434,0.012288988567888738,-0.014764070510864258
1.390418,0.412384033203125,0.40461131930351263,-9.900757789611818,-0.002437830669805408,0.012253227643668653,-0.019632279872894287
1.390564,0.4507925510406494,0.40797924995422363,-9.796911239624023,-0.015631319954991344,-0.003737211227416992,-0.007033348549157382
1.394803,0.432919442653656,0.2611515522003174,-9.729578971862795,-0.0014320015907287598,0.0015914441319182517,-0.006170571316033603
1.394879,0.39760953187942505,0.22172786295413974,-9.780569076538086,-0.00306516932323575,0.014470520429313185,0.004848837852478027
1.399141,0.39753150939941406,0.34814915060997015,-9.899054527282717,-0.018805265426635742,0.0024810433387756348,-0.003941357601433993
1.399282,0.47367718815803533,0.4280408024787903,-9.801316261291506,-0.0025019049644470215,-0.007352234330028296,-0.005257129669189453
1.404540,0.4776853024959565,0.27335515618324285,-9.736840248107912,0.0061675901524722585,0.014460084959864616,0.0021323557011783123
1.404606,0.45347306132316595,0.19926148653030396,-9.74195194244385,0.0034779314883053303,0.010290744714438917,0.0013515353202819824
1.409917,0.44595924019813543,0.2665036916732788,-9.812964439392092,-0.017632542178034786,-0.0006929039373062552,0.003591179382055998
1.409982,0.4586763679981232,0.37286975979805,-9.859283447265625,-0.017347928136587143,0.0005513429059647025,-0.007407366298139095
1.414157,0.4958986341953278,0.32884836196899414,-9.774659156799318,-0.019596518948674205,-0.011421740055084229,0.013190509751439095
1.414216,0.4429501593112946,0.17932265996932983,-9.683509826660156,-0.013929605484008789,-0.007437169086188079,0.011973081156611443
1.419555,0.38809919357299805,0.14864176511764526,-9.81214714050293,0.002558530075475574,0.006720425095409156,0.009340047836303711
1.419624,0.3978802859783173,0.3047483861446381,-9.878071784973146,0.011080504395067694,0.006070733070373535,-0.007194282021373511
1.425148,0.4296521544456482,0.30138975381851196,-9.758890151977539,-0.0023826956748962402,-0.007812679745256903,0.005215406883507968
1.425317,0.41698944568634033,0.14816327393054965,-9.709607124328615,-0.020314756780862808,-0.016891958191990856,0.00034123664954677224
1.429333,0.39109253883361816,0.11947099119424821,-9.762081146240234,-0.014962256886065008,-0.0021919610444456343,0.008258223533630371
1.429422,0.4091583192348481,0.23107486963272095,-9.868118286132812,-0.010439753532409668,0.0026032326277345423,-0.004182755947113037
1.434753,0.43618753552436834,0.3120471239089966,-9.800601005554201,0.004662573337554932,-0.008244813419878485,9.834767115535216e-05
1.434826,0.4843806028366089,0.2046259045600891,-9.76437759399414,-0.0013530253199860456,0.000770389917306602,0.004975497256964446
1.439378,0.41700527071952825,0.08565521240234375,-9.769034385681154,0.014570357277989388,-0.0023558735847473145,-0.012923779897391798
1.439813,0.3693548142910004,0.13387519121170044,-9.773108482360842,0.00840574596077204,-0.006143748760223389,-0.006370246876031161
1.444769,0.3922383189201355,0.24932204186916354,-9.931940078735352,-0.0005900860414840282,-0.005713105201721191,-0.005058944225311279
1.444834,0.4145073592662812,0.23763547837734225,-9.815454483032227,0.010658801533281805,-0.022326409816741943,-0.0028833749238401656
1.449275,0.3803465962409973,0.11673911660909654,-9.735631942749023,-0.001074373838491738,-0.012826920486986639,-0.001183152198791504
1.449383,0.3628784418106079,0.13153794407844543,-9.731420516967773,-0.0032529241871088748,0.0012993814889341593,-0.007420779671519996
1.455129,0.39538395404815674,0.21296310424804688,-9.898509025573732,0.014866889454424383,-0.006122887134552002,-0.024144351482391357
1.455302,0.3811869323253632,0.33695980906486517,-9.911409378051758,0.004048645030707122,0.00022500750492326915,0.004361570347100497
1.459537,0.42044940590858465,0.25848177075386053,-9.74893093109131,-0.004659593105316162,-0.004079937003552914,-0.005628169048577548
1.459606,0.4020116329193115,0.15424935519695285,-9.776151657104492,0.013731420040130615,0.011931360699236395,-0.024040043354034424
1.464939,0.3917844891548157,0.2174244225025177,-9.82771396636963,0.003001094097271562,0.0032439827919006348,-0.03125518560409546
1.465029,0.3796940743923188,0.3437694311141968,-9.933632850646974,0.0005617738352157177,0.006210803985595703,-0.03318339958786965
1.469127,0.41135075688362127,0.33479464054107666,-9.832475662231445,-0.005730986129492522,-0.01419037487357855,-0.009176133200526237
1.469191,0.40187835693359375,0.20026792585849765,-9.74442768096924,-3.129244214505889e-05,0.0008881092071533203,-0.019305946305394176
1.474525,0.35656797885894775,0.20927348732948303,-9.798324584960938,0.0050589446909725675,-0.004284084774553776,-0.01375824399292469
1.474590,0.39796307682991033,0.3170399367809296,-9.864233970642092,-0.001373887062072754,0.011299551464617254,-0.004710257053375244
1.481648,0.41226604580879217,0.4019690752029419,-9.873000144958498,0.002549588680267334,0.00012218952178955078,-0.010287762619554998
1.481722,0.459187000989914,0.35534733533859253,-9.785652160644531,-0.0016495588934049012,-0.011248886585235596,-0.013589859940111639
1.485029,0.4517356753349304,0.25603714585304266,-9.724136352539062,-0.010508299805223944,-0.008025765419006348,-0.005516409873962402
1.485118,0.4525094330310822,0.29324492812156683,-9.847815513610842,-0.009751320816576483,0.01351088471710682,-0.010830164887011053
1.489419,0.42715221643447876,0.42513376474380493,-9.880115509033203,-0.015939772129058838,0.0001862645149230957,-0.019761921837925914
1.489487,0.46152156591415405,0.39557117223739624,-9.819147109985352,-0.0012814998626708984,-0.003901124699041248,-0.0027954578399658203
1.495007,0.4476443827152253,0.2586413621902466,-9.7088623046875,-0.004248321056365967,-0.02255886979401112,-0.008110702969133856
1.495077,0.39051863551139837,0.24472279846668246,-9.798665046691896,-0.01781583018600941,0.006280839443206787,0.0033348801080137496
1.499485,0.3918892741203308,0.35214167833328247,-9.899048805236818,-0.015874207019805908,-0.006094573996961117,-0.004038215149194003
1.499570,0.46844771504402166,0.40378522872924805,-9.783129692077638,0.00880509428679943,-0.011080502532422544,-0.0002741813659667969
1.504928,0.48277080059051514,0.2938702702522278,-9.75639057159424,-0.0214651245623827,-0.002409517765045166,0.002887845505028963
1.505064,0.46289610862731934,0.21683900058269504,-9.730974197387695,0.0026434659957885742,-0.001037120935507119,0.0034049153327941895
1.509411,0.43883183598518377,0.2745089232921601,-9.840715408325195,-0.02164692059159279,-0.0023886566050350666,-0.0033065683674067263
1.509476,0.46676796674728394,0.388866662979126,-9.856618881225586,-0.002810359233990312,-0.0035896897315979004,0.0031456353608518843
1.515361,0.4797534048557282,0.3087047338485718,-9.767532348632812,-0.026653707027435303,-0.01768768019974232,0.005632639396935702
1.515432,0.4119302034378052,0.16826628148555758,-9.687445640563967,-0.003033876419067383,0.011186302639544012,-0.0004082918749190867
1.519584,0.4070082604885102,0.15689986944198608,-9.7942590713501,0.00621676491573453,-0.002951920265331865,0.011906027793884277
1.519667,0.389535129070282,0.28859466314315796,-9.925141334533693,-0.011675060726702215,0.007046760059893131,0.015014412812888624
1.524920,0.42847228050231934,0.29881772398948675,-9.763028144836428,-0.010478495620191099,-0.0026151533238589764,0.0034034247510135174
1.524986,0.41191381216049194,0.15095102787017822,-9.695699691772461,-0.017723446711897854,0.0028729443438351154,0.015605988912284376
1.529215,0.39547774195671087,0.09114964306354523,-9.752273559570312,-0.0029161574784666304,-7.003546488704161e-05,-0.014741718769073486
1.529294,0.4310859441757202,0.19860188663005832,-9.829265594482422,0.013734399341046812,0.0001281499571632594,0.008326767943799497
1.536633,0.4329707622528076,0.30359295010566717,-9.887996673583984,0.012049078941345215,-0.011156500317156317,-0.002287328010424972
1.536781,0.4677885174751282,0.2368754744529724,-9.778283119201662,0.0030994415283203125,-0.012725592590868475,-0.009278953075408936
1.539124,0.416137844324112,0.0713326632976532,-9.69401264190674,-0.004357099998742343,-0.008814037777483465,0.006186962127685547
1.539261,0.39385372400283813,0.08826257288455963,-9.780012130737305,0.004707276821136475,-0.009509920142591001,-0.007937848567962646
1.544779,0.39536720514297485,0.24015726149082187,-9.888893127441406,-0.006280839443206787,0.0018343330593779685,-0.009943545795977117
1.544858,0.3955295383930207,0.2835074961185456,-9.82383441925049,0.001727044815197587,-0.0038534409832209353,-0.010745229199528694
1.549132,0.38462966680526733,0.11815142631530762,-9.713454246520998,0.003232062561437488,0.00023990873887669298,-0.016649067401885986
1.549204,0.3357512354850769,0.10289526730775835,-9.740859031677248,0.01583695411682129,-0.002638995880261064,-0.011812150478363037
1.554795,0.3615630865097046,0.19010546803474426,-9.906536102294922,0.0025570390280336146,0.0011578199919313192,-0.019992884248495102
1.554862,0.40735864639282227,0.3156919479370117,-9.855977058410646,0.00527799129486084,-0.005352497566491366,-0.01836419105529785
1.559277,0.4051633179187775,0.2755788564682007,-9.779460906982422,0.00397413969039917,-0.01049041748046875,0.0013664365978911521
1.559370,0.39222398400306707,0.17054359614849093,-9.742868423461914,0.013796985149383545,-0.012357533909380438,-0.01728534698486328
1.564624,0.40793213248252874,0.20398692786693576,-9.854116439819336,0.0014677647268399598,-0.0008791686268523335,-0.019846856594085693
1.564687,0.38121882081031805,0.3516201972961426,-9.9197998046875,0.010041895322501661,0.013868512585759163,-0.00539124058559537
1.569954,0.40475419163703924,0.333321362733841,-9.821328163146974,0.00976472906768322,-0.0006854534149169922,-0.019264223054051403
1.570011,0.3840799033641816,0.20158016681671143,-9.752660751342773,-0.00425875186920166,-0.0017061830731108787,-0.013150276616215706
1.574259,0.356999933719635,0.18405227363109591,-9.759350776672365,-0.007614494767040015,0.0003784895525313914,-0.02458691969513893
1.574317,0.3885853588581086,0.30740058422088623,-9.894662857055664,0.0023528928868472576,0.026603044942021373,-0.012442469596862793
1.579835,0.4016522169113159,0.42376482486724854,-9.838316917419435,-0.010779500938951971,0.0025525691453367476,-0.0026687979698181152
1.579904,0.46354496479034424,0.31502872705459595,-9.78689956665039,-0.002072751754894853,0.012832880020141602,-0.013080240227282049
1.586648,0.4122520685195923,0.25835987925529486,-9.76276969909668,-0.0043287863954901695,-0.0032141802366822962,-0.022354723885655407
1.586717,0.44956031441688543,0.28626629710197454,-9.85749626159668,-0.00235140323638916,0.0006645917310379447,-0.025425851345062256
1.589172,0.4231724739074707,0.42212772369384766,-9.888412475585938,0.006400048267096282,0.0056400890462100515,-0.00464171078056097
1.589263,0.44805374741554266,0.4041680097579956,-9.777448654174805,-0.02456456422805786,-0.009727477096021177,-0.01277625560760498
1.594958,0.4290142953395844,0.20876476168632507,-9.721022605895998,-0.014460087753832342,-0.007571280002593994,-0.005291402339935303
1.595060,0.39465367794036865,0.2243802845478058,-9.802770614624023,-0.00824034307152033,0.007288158871233463,-0.011382997967302801
1.599304,0.38252821564674383,0.35998862981796265,-9.905960083007812,-0.005728006362915039,0.005257129669189453,-0.0016942623769864442
1.599371,0.44018700718879705,0.38225254416465765,-9.791189193725586,-0.017529727891087536,0.011612474918365479,0.008989871479570867
1.604631,0.4638722240924836,0.27344813942909246,-9.729837417602539,-0.005884469021111728,-0.013418497517704964,0.005303323268890381
1.604702,0.43039646744728094,0.20859749615192416,-9.734913825988771,-0.006990136113017798,0.005313754081726074,-0.001727044931612909
1.610011,0.47296825051307684,0.29864940047264105,-9.832686424255373,-0.0033825631253421307,0.012449918314814568,0.004516541492193938
1.610108,0.4531910717487336,0.403614342212677,-9.860749244689943,-0.0023975966032594447,0.0019401311874389648,-0.0069826846010983
1.614281,0.4906773567199707,0.3139042854309082,-9.791222572326662,-0.017344951629638672,0.005559623707085849,0.008936227299273016
1.614344,0.44307374954223633,0.1507870852947235,-9.680626869201662,0.005370378494262695,-0.0023826959077268843,0.0017270445823669434
1.619842,0.39877408742904663,0.16740882396697998,-9.795634269714357,0.027786195278167725,-0.0050574541091918945,0.013752282597124578
1.619921,0.395080178976059,0.3075566291809082,-9.891946792602539,-0.0050038094632327565,0.0006362795829772949,0.014021993614733221
1.624351,0.42147031426429754,0.2984294295310974,-9.794914245605469,0.004418194759637118,0.0024840235710144043,-0.0016868114471435547
1.624414,0.4145695865154267,0.16699717938899997,-9.693002700805664,-0.0008329750271514058,0.005625188816338778,0.005240738391876221
1.629793,0.4251189529895783,0.11683379113674164,-9.76504421234131,-0.006593763828277588,0.00047981739044189453,0.0030815603677183394
1.629859,0.4240938425064087,0.22971704602241516,-9.85154914855957,-0.00536292837932706,-0.0019058585166931152,0.0001803040649974719
1.635809,0.4401480853557587,0.29721444845199585,-9.838045120239258,0.004298985470086337,0.002412498462945223,0.005115569569170475
1.635894,0.45693331956863403,0.21398985385894775,-9.80033588409424,-0.014562906697392464,-0.0036478049587458376,-0.0035449867136776447
1.639434,0.4050168097019196,0.08177194744348527,-9.732855796813967,0.00047981747775338596,-0.007653237786144019,-0.0059738764539361
1.639507,0.3763493299484253,0.11123183369636536,-9.75224018096924,0.001293420675210655,-0.008407235145568848,0.0070065255276858815
1.645547,0.395207941532135,0.24674734473228455,-9.902807235717773,0.0065132975578308105,0.0022605063859373335,-0.014425815083086492
1.645769,0.40264707803726196,0.2499416917562485,-9.801539421081545,-0.0010102988453581931,0.0028342008590698242,-0.006510318722575904
1.649944,0.36684954166412354,0.10722777992486955,-9.734128952026367,-0.0005230308161117138,-0.005722047295421363,-0.011037290096282959
1.650033,0.3586655855178833,0.11645048111677171,-9.764640808105469,0.008335709571838379,-0.0028014185372740035,-0.008565187454223633
1.654500,0.37794625759124756,0.20760247111320496,-9.883114814758303,0.013016166165471077,0.004315376747399569,-0.01179576199501753
1.654717,0.3990005850791931,0.3115025460720063,-9.889213562011719,0.006829202640801669,-0.010655820369720459,-0.004661083687096835
1.660187,0.4068456590175629,0.26909905672073364,-9.753058433532717,-0.00024437904357910156,-0.0040978193283081055,-0.025384133681654934
1.660254,0.38935807347297674,0.15693397819995883,-9.785816192626953,0.014020503498613836,-0.009812414646148682,-0.004287063609808684
1.664604,0.40530121326446533,0.21590544283390048,-9.847216606140138,0.020122529938817028,0.012318789958953857,-0.017824769020080566
1.664685,0.3838115930557251,0.3436230123043061,-9.918398857116701,0.008724630810320379,0.0007912516593933105,-0.01659542135894299
1.669934,0.4007979333400727,0.33749955892562866,-9.828245162963867,-0.0030755999032408003,0.008830429054796697,-0.025892257690429688
1.669998,0.3776379525661469,0.20573046803474426,-9.705432891845703,0.002694129478186369,-0.0016674398211762311,-0.024056430906057358
1.674473,0.3527359068393708,0.18787625432014465,-9.787098884582521,-0.010076166130602362,0.002650916576385498,-0.020572543144226074
1.674544,0.3733794689178467,0.32643967866897583,-9.857192993164062,-0.0016137959901243448,-0.004953146446496249,0.0011280181352049112
1.681487,0.4101200997829438,0.39801937341690063,-9.834104537963867,0.0035822393838316207,0.014792383648455145,-0.013674795627593994
1.681551,0.4538140296936035,0.3514969646930695,-9.763400077819826,-0.015994906425476074,-0.011025370098650457,-0.010028481483459473
1.684187,0.4547860622406006,0.23973965644836426,-9.725460052490234,0.004185735248029232,0.00021606685186270627,-0.014263390563428404
1.684252,0.44282320141792303,0.27254027128219604,-9.894864082336428,0.003807246685028076,0.02037286572158337,-0.018709897994995117
1.689792,0.44082069396972656,0.4425175487995148,-9.898307800292969,-0.0034824016038328414,0.02025813050568104,-0.009018182754516602
1.689866,0.46677106618881226,0.44045123457908636,-9.81101703643799,-0.01669973134994507,-0.0029608609620481734,-0.008824467658996582
1.695365,0.4533794820308686,0.2439093738794327,-9.725478172302248,-0.019854307174682617,0.007756053935736419,-0.011627377010881903
1.695435,0.4098921120166779,0.2218415290117264,-9.763988494873047,-0.005701184272766113,0.011567772366106512,-0.02025216817855835
1.700061,0.37842938303947454,0.3303578495979309,-9.932187080383303,-0.01242608018219471,0.005488097667694092,-0.006844104733318091
1.700173,0.44419169425964355,0.40385434031486517,-9.789904594421388,-0.016197562217712402,0.009278954006731512,0.005380809307098389
1.704624,0.4475125968456269,0.30703508853912354,-9.749290466308594,-0.01737177558243275,0.0015661120414733887,0.005856156349182129
1.704723,0.43736872076988226,0.21427212655544284,-9.704438209533693,-0.010266900993883612,0.008812546730041504,0.015763940289616588
1.709886,0.45124393701553345,0.27848076820373535,-9.824151992797852,-0.009179114364087583,0.003907084930688144,-0.007909536361694336
1.709974,0.4666110575199128,0.3875263631343842,-9.88297748565674,-0.01337379403412342,0.0069767250679433354,-0.00356137752532959
1.714216,0.489280104637146,0.30716633796691895,-9.76205348968506,-0.012972950004041197,-0.006812809966504574,-0.004097818396985531
1.714281,0.43354657292366033,0.1521367281675339,-9.6944580078125,-0.0015214085578918457,-0.0011205674381926658,-0.006160140037536621
1.719541,0.4018716514110566,0.15309692919254306,-9.760892868041992,0.00023841859365347776,0.0004932284937240184,-0.002244114875793457
1.719623,0.40330106019973755,0.3103142976760864,-9.882284164428711,-0.008687376976013184,0.003914534579962493,0.011257825419306755
1.725005,0.4149397015571594,0.316148579120636,-9.756070137023928,-0.0034674997441470623,0.01475364062935114,0.007240474689751864
1.725087,0.44144725799560547,0.17237149178981784,-9.71677875518799,-0.009422004222869873,-0.004002452362328769,0.012212991714477539
1.729154,0.4006803929805756,0.12322985380887987,-9.752431869506836,0.023610891774296764,-0.006905198562890292,0.005260109901428223
1.729218,0.426854282617569,0.20133890211582187,-9.844513893127443,0.010588766075670721,-0.0026106839068233967,0.0124052194878459
1.735138,0.41428524255752563,0.3212085962295532,-9.826895713806154,0.0074163079261779785,-0.008955596946179869,0.003272294765338302
1.736599,0.492601364850998,0.1968218982219696,-9.760226249694826,-0.01208931300789118,-0.0012993812561035156,0.001245737192220986
1.739660,0.38895383477211004,0.06693222373723985,-9.713274002075195,0.0007048249244689941,0.0003248453140258789,0.010821224190294744
1.739784,0.3824972212314606,0.13914504647254944,-9.83011245727539,0.013922154903411865,-0.002326071029528976,-0.0004082918167114258
1.745226,0.3747941851615906,0.25624617934226995,-9.88051509857178,0.0038847334217280154,-0.0060111284255981445,-0.0005006790161132812
1.745329,0.39959168434143066,0.2496939152479172,-9.84038829803467,0.001323223230428994,-0.006371736526489258,-0.012801590375602247
1.750506,0.38743072748184204,0.13152480125427246,-9.696870803833008,0.022795798256993297,0.0016570092411711814,-0.01179128885269165
1.750574,0.35061314702034,0.10183712840080261,-9.729842185974123,-0.001959502929821611,-0.018246471881866455,-0.009782613255083563
1.754848,0.3881147205829621,0.23731738328933716,-9.911062240600586,-0.004045665264129639,-0.016425551846623424,-0.008775292895734312
1.754913,0.40028560161590576,0.36148270964622503,-9.858887672424318,0.0040590763092041016,-0.01377463433891535,-0.01497715711593628
1.760260,0.42432183027267456,0.25554680824279785,-9.77949619293213,-0.002385676139965654,-0.007826090790331365,-0.004777312278747559
1.760343,0.4034081399440766,0.14105159044265747,-9.752522468566896,0.004711746238172054,-0.002604722743853927,-0.028389688581228256
1.764529,0.3740151524543762,0.21465453505516052,-9.845643043518068,0.0003337859816383571,0.0013858077581971884,-0.01551210880279541
1.764596,0.38520064949989324,0.35427495837211614,-9.94204616546631,0.012059509754180908,0.013345480896532537,-0.00473856832832098
1.770018,0.4076111912727356,0.32936370372772217,-9.81161117553711,0.0037431723903864626,0.001657009474001825,-0.014422835782170296
1.770089,0.38015860319137573,0.206954687833786,-9.75680923461914,-0.0021591784898191695,0.011721253395080566,-0.0338733233511448
1.775244,0.3405607640743256,0.19459855556488037,-9.750979423522951,0.0008061528787948192,-0.012701751664280891,-0.017602741718292236
1.775330,0.3908954560756684,0.3479481339454651,-9.876822471618654,0.0027567150536924605,0.003728270996361971,-0.02094209380447865
1.779535,0.40716388821601873,0.39391928911209106,-9.857663154602053,0.0025197861250489955,0.01205801870673895,-0.0006094573764130473
1.779641,0.4513068199157715,0.3513225317001343,-9.775861740112305,-0.0063657774589955815,0.007934870198369026,-0.005474688019603492
1.784290,0.436970591545105,0.255920559167862,-9.722653388977053,-0.008152425289154053,-0.0022739174310117964,-0.011460484005510809
1.784452,0.4401283264160156,0.2607485055923462,-9.8587121963501,-0.0024318695068359375,-0.004495680797845126,-0.028628110885620117
1.789872,0.45145153999328613,0.41972148418426514,-9.888572692871094,-0.005285441875457764,-0.006330014206469059,0.007084012497216464
1.789965,0.46166554093360906,0.37555211782455444,-9.79546642303467,-0.0020444395486265425,-0.009275972843170166,-0.014388560317456724
1.794210,0.4209741055965424,0.24113300442695618,-9.715554237365724,-0.014954808168113233,0.010938942432403564,-0.00832974910736084
1.794279,0.4230468571186066,0.24614837765693665,-9.803025245666506,-0.02029240131378174,0.006356835830956698,0.0033602118492126465
1.800292,0.4260540008544922,0.36419737339019775,-9.91039562225342,-0.003674626583233476,0.022147594019770626,0.006113946437835693
1.800694,0.4346379935741425,0.39984649419784546,-9.798169136047365,-0.014734269119799139,0.008399784564971924,-0.01408755872398615
1.804653,0.43676617741584783,0.2801809310913086,-9.73246955871582,-0.01919865608215332,-0.004151463974267245,0.009864569641649725
1.804741,0.4195709824562073,0.2166958451271057,-9.723772048950195,-0.006733835209161044,0.0011935827787965536,-0.006064773071557284
1.809983,0.4252215921878815,0.27157542109489446,-9.851733207702638,-0.011856856755912306,0.0014185908949002626,-0.004501641727983952
1.810065,0.47100913524627686,0.3945391774177551,-9.831677436828615,-0.014205277897417547,7.450580596923828e-05,-0.0005722045316360892
1.814693,0.4773666262626648,0.315451979637146,-9.757826805114748,-0.025200849398970607,0.004509091377258301,0.010381640866398811
1.814755,0.42252025008201605,0.1468176245689392,-9.719353675842287,-0.020000340417027477,0.0048100948333740234,-0.0077545647509396085
1.820244,0.41415029764175415,0.13692498207092285,-9.776163101196289,-0.004561245441436768,0.003752112854272127,0.00865608546882868
1.820333,0.378902941942215,0.2777283191680908,-9.906982421875,0.0035211450885981326,0.009953975677490234,-0.017067791894078258
1.824501,0.42032179236412054,0.3095832169055939,-9.75330448150635,-0.008603931404650213,-0.00019222497940063477,-0.007069111801683903
1.824566,0.4400275647640229,0.16181133687496188,-9.705639839172365,-0.023195143789052963,-0.014555453322827818,-0.005495547316968441
1.829882,0.40081787109375,0.09935158491134644,-9.739849090576172,-0.01151710841804743,-0.012257696129381658,0.0036910180933773518
1.829949,0.4117519557476044,0.20813587307929993,-9.863887786865234,-0.007902085781097412,-0.0031769277993589644,0.0074669718742370605
1.834356,0.4209035933017731,0.31323128938674927,-9.838001251220703,0.005055963061749935,-0.011597574688494207,-0.0246345978230238
1.834449,0.46935397386550903,0.23273509740829468,-9.77827262878418,0.009162724018096924,0.000502169190440327,0.004829466342926025
1.840026,0.42815840244293213,0.0710289552807808,-9.745450019836428,-0.0038534409832209353,-0.0014573336811736228,0.00039637088775634766
1.840095,0.36029672622680664,0.10435376316308977,-9.74378776550293,0.016330182552337646,0.00951290223747492,-0.0026047229766845703
1.844197,0.38176143169403076,0.219798743724823,-9.926201820373537,-0.005386770702898502,0.008589030243456365,0.001990795368328691
1.844265,0.3873007893562317,0.27409484982490545,-9.83069705963135,-0.0037059192545711994,-0.004401803482323886,-0.013571977615356445
1.849798,0.37316131591796875,0.17584149539470675,-9.738611221313477,0.002606213325634599,-0.016763808205723766,-0.006085633300244808
1.849890,0.3493058383464814,0.09355866163969041,-9.743675231933594,0.010485949926078321,-0.0003337860107421875,0.0041499738581478604
1.855128,0.3833686113357544,0.19686134159564975,-9.87061882019043,0.008915365673601629,-0.0023052096366882324,0.0014826655387878418
1.855314,0.39491212368011475,0.3251018524169922,-9.882299423217773,0.002270936965942383,-0.008575619198381903,-0.008764863014221191
1.859593,0.40810629725456243,0.258426308631897,-9.737764358520508,-0.004170835483819247,-0.019043685868382457,-0.02164393663406372
1.859700,0.39500305056571966,0.1679290682077408,-9.759521484375,-0.0038057568017393355,-0.007006525993347168,-0.02561658807098866
1.864636,0.40797302126884466,0.1876530945301056,-9.852676391601562,0.00742673920467496,-0.0015333294868469238,-0.02721548080444336
1.864702,0.38941484689712524,0.3424699902534485,-9.897597312927248,0.0034302473068237305,0.0021383163984864955,-0.01328885555267334
1.870120,0.3952648639678955,0.3294529318809509,-9.837902069091797,-0.016282498836517334,0.004760921001434326,-0.023202603682875637
1.870219,0.38826009631156927,0.20446284115314486,-9.738809585571289,-0.011026859283447266,-0.0006467104540206493,-0.013104081153869629
1.874323,0.36363327503204346,0.19065314531326294,-9.771921157836914,-0.003926456440240146,-0.004340708255767822,-0.02095252275466919
1.875002,0.4152463674545288,0.3373014628887177,-9.904675483703615,-0.009424985386431219,0.004947185516357422,-0.026653712615370754
1.879778,0.4122646450996399,0.4156773984432221,-9.864720344543459,-0.010935962200164795,-0.008121132850646973,-0.010681153275072576
1.879867,0.4781532883644104,0.33665889501571655,-9.799565315246584,-0.012217462062835693,-0.004608928691595794,-0.008840857073664665
1.885366,0.4127307832241059,0.2547284066677094,-9.698899269104006,-0.018924470990896225,0.003768503433093429,0.003744661575183273
1.885442,0.4182659983634949,0.27679890394210815,-9.880855560302734,-0.015468897297978401,-0.0012710693990811708,-0.011619925498962402
1.889816,0.4227620661258698,0.422116369009018,-9.910619735717773,-0.0032171614002436404,-0.0140190152451396,0.01125037670135498
1.889890,0.47518014907836914,0.4215502142906189,-9.802665710449219,-0.013405085541307928,0.0017061829566955566,-0.011439622379839422
1.894252,0.45994278788566595,0.2612517178058625,-9.726980209350586,0.000624358595814556,-0.0024735922925174236,-0.01198500394821167
1.894340,0.39861369132995605,0.24051438271999362,-9.780657768249513,0.0036492950748652224,-0.00457316730171442,-0.009486082009971144
1.899647,0.4065070152282715,0.3639237880706787,-9.943601608276367,-0.0060886149294674405,-0.009050966240465643,-0.011102855205535889
1.899734,0.4360836148262024,0.4214641749858857,-9.78715229034424,-0.015191733837127686,0.013454257510602476,-0.008749961853027344
1.905030,0.4625479578971863,0.2940133213996887,-9.739603042602539,-0.030428174883127213,0.0053867711685597905,0.005425514187663794
1.905094,0.42912644147872925,0.19516441226005554,-9.72513198852539,-0.0018373130587860944,0.0024184579961001873,0.007441639434546233
1.909286,0.43769097328186035,0.26347908377647405,-9.832334518432617,0.0028148300480097537,0.0012129546375945213,-0.005796551704406738
1.909344,0.4557895064353943,0.3886335492134094,-9.88569736480713,0.0007659195689484477,0.000789761485066265,0.015383956953883171
1.914629,0.48121157288551336,0.3340846002101899,-9.752382278442383,-0.0018954274710267782,-0.0019401313038542869,0.013144315220415594
1.914702,0.4319881200790405,0.15493847429752353,-9.718050003051758,-0.013108551502227783,-0.0005155801190994681,-0.005143880844116211
1.920005,0.400348573923111,0.15017990767955783,-9.795572280883789,0.00742971943691373,0.001259148237295449,0.0027760863304138184
1.920076,0.38836008310317993,0.279435008764267,-9.877908706665039,-0.017085673287510875,-0.006581843830645084,0.0023081905674189333
1.924303,0.46298000216484075,0.32951873540878296,-9.818899154663086,0.0012889504432678223,-0.019633771851658825,-0.007085502613335849
1.924364,0.41971477866172796,0.16139525175094604,-9.722171783447266,0.00117570161819458,0.0015273693716153505,0.0032886862754821777
1.929746,0.39648377895355225,0.09517896920442583,-9.76756477355957,-0.007560849655419589,-0.011159478686749937,-0.00845789909362793
1.929865,0.42556339502334595,0.21653668582439425,-9.820974349975586,-0.012347102165222168,-0.006027520168572665,0.005760788917541504
1.935087,0.43459627032279974,0.32933974266052246,-9.85341548919678,0.005784630309790374,0.005652009509503841,0.005769728682935238
1.935991,0.462486207485199,0.2138276994228363,-9.790660858154297,-0.0025108451955020428,-0.007338821422308684,0.005032121203839779
1.939484,0.414309561252594,0.07099828869104387,-9.755094528198242,0.009854137897491455,-0.01179128885269165,-0.004914403427392245
1.939579,0.39370405673980713,0.11677200347185136,-9.773183822631836,-0.009228289127349854,-0.009767712093889715,-0.007650256156921387
1.944693,0.4089599549770356,0.25075966119766235,-9.895970344543459,0.011102856136858465,0.017027556896209717,-0.015038251876831055
1.944790,0.40796399116516113,0.21306140720844272,-9.826413154602053,0.02858489938080311,-0.005735456012189388,-0.01510679814964533
1.949185,0.3763875365257263,0.1396242529153824,-9.73293209075928,0.0006318092346191406,5.364418029785156e-05,0.0022783877793699507
1.949255,0.3653070330619812,0.10973629355430603,-9.739695549011232,0.012652575969696045,-0.020691754296422008,-0.002491474151611328
1.954718,0.4087646901607514,0.22371704876422885,-9.918061256408693,0.019168853759765625,-0.004914403427392245,-0.013045969419181349
1.954833,0.39801597595214844,0.31287825107574463,-9.860060691833498,0.011415780521929266,0.00995248556137085,-0.008794666267931463
1.960062,0.42008218169212347,0.27410101890563965,-9.789260864257812,0.02132505178451538,-0.011420248076319695,-0.01747160963714123
1.960128,0.39354553818702703,0.15314790606498718,-9.788593292236328,-0.010502337478101255,-0.007095932029187679,-0.02930313162505627
1.964294,0.41886717081069946,0.2268427014350891,-9.823753356933594,0.019213557243347168,-0.0030666592065244917,-0.011706353165209295
1.964348,0.4078493416309357,0.36226874589920044,-9.93807125091553,0.03241897746920586,-0.010347368195652962,-0.03355741873383523
1.969716,0.40616592764854437,0.3441224694252014,-9.797778129577638,0.013077261857688429,-0.014477971009910108,-0.02882630005478859
1.969776,0.3989989757537842,0.19227316975593567,-9.76381015777588,-0.008875131607055664,-0.0012800098629668357,-0.010386109352111816
1.975128,0.364934653043747,0.2041197419166565,-9.77613925933838,-0.0009030105429701508,-0.00036656862357631326,-0.018975138664245605
1.975317,0.38014659285545355,0.33846566081047064,-9.871156692504883,-0.0025331974029541016,0.0025019047316163783,-0.01651495322585106
1.981373,0.4235155880451203,0.41688233613967896,-9.849526405334474,0.006398559082299472,0.015673043206334118,-0.020751357078552246
1.981439,0.462080717086792,0.38257884979248047,-9.77882480621338,-0.008891522884368896,0.015509129501879217,-0.008311867713928223
1.985309,0.4248043596744538,0.23429709672927856,-9.733595848083498,-0.011827052570879461,0.002592802047729492,-0.01262575387954712
1.985381,0.45251342654228216,0.26747769117355347,-9.861586570739748,-0.00795125961303711,0.012032688595354559,-0.02330392599105835
1.989970,0.4404636919498444,0.4519244730472565,-9.913620948791506,-0.007256866898387671,0.005945564713329078,-0.0008910895558074117
1.990087,0.4833905994892121,0.4096070230007172,-9.794335365295412,-0.02513676881790161,-0.0006034969701431693,-0.011824069544672966
1.994223,0.44403049349784857,0.21812780201435092,-9.722544670104982,-0.004307924769818783,0.006999074947088958,-0.0064700846560299405
1.994323,0.42033594846725464,0.22722160816192627,-9.804328918457031,-0.012007355690002441,0.0022545459214597945,-0.00616610050201416
2.000559,0.4260649085044861,0.3440788984298706,-9.89227294921875,-0.010690094903111458,0.0029981140978634357,0.002740323776379228
2.000726,0.43199193477630615,0.40540638566017156,-9.77039909362793,-0.023125112056732178,9.983778727473692e-05,0.004750489257276058
2.004820,0.45307379961013794,0.29347139596939087,-9.734003067016602,0.005662442650645972,-0.00046193605521693826,-0.007618964649736881
2.004894,0.43443822860717773,0.2004304826259613,-9.727963447570803,0.009486082009971144,0.0014245512429624796,-0.0019758942071348433
2.009265,0.4346662163734436,0.27986788749694824,-9.835165023803711,-0.017580391839146618,-0.010371209122240545,-0.002817809581756592
2.009331,0.4845424592494965,0.3985783159732819,-9.855363845825195,-0.020886959508061412,0.00400543212890625,-0.004920363891869784
2.015090,0.4800386726856232,0.31791794300079346,-9.75508213043213,-0.00147521507460624,0.008219480514526367,-0.0036925077438354492
2.015253,0.42959573864936834,0.14154121279716492,-9.674958229064943,-0.009912250563502312,-0.0065654520876705655,-0.0025138254277408123
2.019551,0.4300095140933991,0.20552249252796176,-9.826497077941896,-0.004179775714874268,0.017115473747253418,0.012597442604601385
2.019635,0.37220898270607,0.29805123805999756,-9.877893447875977,-0.005388260353356601,0.011296570301055908,0.003978610504418612
2.024870,0.4134823679924011,0.29197838902473455,-9.764287948608398,-0.004997850861400367,-0.007545948959887028,-0.0021725897677242756
2.024965,0.407805860042572,0.1426457613706589,-9.710907936096193,-0.00712126400321722,0.008864699862897398,0.005951522849500179
2.030567,0.40768367052078247,0.10865852236747742,-9.738531112670898,0.006139279808849097,0.005130470264703036,0.0002637505531311035
2.030657,0.3900250792503357,0.23222954571247104,-9.856907844543459,0.001455843565054238,-0.009734928607940674,-0.004081428516656161
2.034954,0.44421926140785223,0.33492112159729004,-9.818790435791016,-0.0018835071241483094,-0.00057220458984375,-0.01437366008758545
2.035021,0.4610251784324646,0.20981526374816895,-9.789242744445803,0.0043049450032413015,-0.015184283256530762,0.006036459933966399
2.039426,0.39922553300857544,0.08027209341526031,-9.755037307739258,0.012581050395965576,-0.01923292875289917,-0.011338292621076109
2.039489,0.3816511034965515,0.13112756609916687,-9.767622947692873,0.019878149032592773,0.005237758625298739,-0.018693506717681885
2.046962,0.3841993808746338,0.2533228695392609,-9.940231323242188,0.007410348393023014,0.00501275109127164,-0.008831919170916082
2.047026,0.3780876398086548,0.2580183148384094,-9.795872688293459,-0.000642240047454834,-0.004608929622918368,-0.022989511489868164
2.049938,0.3562694787979126,0.13698948919773105,-9.693916320800781,-0.003142655128613115,-0.003452599281445146,-0.015020370483398438
2.050002,0.3615222871303559,0.0828223302960396,-9.746478080749513,0.008597970008850098,-0.0030085442122071986,-0.009432435035705566
2.054459,0.36957669258117676,0.22379826009273532,-9.895618438720703,0.007513166870921851,-0.0027775769121944904,-0.008372962474822998
2.054544,0.36791995167732244,0.3304685056209565,-9.857172012329102,0.0025898220483213667,-0.010731816291809082,-0.013767183758318426
2.060159,0.4094492793083191,0.2570874989032746,-9.736383438110352,-0.007855892181396484,-0.022812187671661377,-0.006096065510064364
2.060266,0.3842016756534577,0.12321484833955766,-9.793969154357912,0.001375376945361495,-0.002306699519976974,-0.022773440927267075
2.064548,0.40280866622924805,0.20396199822425842,-9.820778846740724,0.005982816684991122,0.019183754920959473,-0.034245848655700684
2.064811,0.4013762772083283,0.36404851078987127,-9.90471076965332,0.005432962439954281,-0.00021755696798209104,-0.02836287021636963
2.069908,0.4113298952579499,0.3280370831489563,-9.843558311462404,-0.004734097979962826,-0.015588102862238884,-0.028640033677220348
2.069970,0.38934069871902466,0.19493797421455383,-9.756825447082521,-0.0039577484130859375,-0.011725724674761297,-0.030423704534769058
2.074178,0.34884113073349,0.1902427077293396,-9.770432472229006,0.017470121383666992,0.005596876610070468,-0.013829768635332586
2.074239,0.4140129387378693,0.3320362269878388,-9.882442474365234,-0.005604327190667392,0.008305907249450684,-0.018471481278538707
2.079619,0.4110914766788483,0.4128715991973877,-9.83694839477539,-0.0002875924401450903,-0.006084143649786712,-0.018408894538879395
2.079689,0.4672444462776184,0.3298322260379792,-9.799489974975586,-0.008146464824676514,-0.009283422492444517,-0.01620650291442871
2.089327,0.42468392848968506,0.277224600315094,-9.726831436157227,0.004252791870385409,0.0002548098564147949,-0.016407668590545654
2.089465,0.44671380519866943,0.29296910762786865,-9.878313064575195,0.006306171417236328,-0.001792609808035195,-0.011692941188812256
2.089530,0.44750115275383,0.433127760887146,-9.884437561035156,0.0005617738352157177,0.0036865475121885542,-0.011263787746429443
2.089561,0.4684898853302002,0.41468626260757446,-9.80814838409424,-0.010038910433650017,0.005596875678747893,-0.002661346923559904
2.094256,0.4465968310832978,0.2332531213760376,-9.690706253051758,-0.01842826791107655,-0.00804811716079712,-0.007858872413635254
2.094336,0.42595443129539495,0.21914909780025485,-9.793225288391115,-0.005546211265027523,0.010818243958055975,0.009329617023468018
2.099747,0.3934622704982758,0.3547024130821228,-9.907385826110842,-0.015178322792053223,0.0012770297471433878,0.011421740986406805
2.099811,0.45251873135566717,0.37820753455162054,-9.769047737121584,0.006167590618133545,0.008994341827929022,-0.005093216896057129
2.105127,0.4492519497871399,0.2573003470897675,-9.73659420013428,-0.014014543034136297,0.010639429092407227,-0.01379847526550293
2.105191,0.44937533140182495,0.2153768241405487,-9.725340843200685,0.006398559547960758,0.0010579825611785056,-0.007081032730638981
2.109412,0.45793700218200684,0.28230124711990356,-9.857514381408693,0.0003725290589500219,0.012810529209673406,0.0008955597877502441
2.109471,0.4396975040435791,0.3968285322189331,-9.85232448577881,0.0006198883056640625,0.0015497208805754783,0.003586709499359131
2.114852,0.5099082589149476,0.32494971156120306,-9.776095390319826,-0.02502650581300259,0.01846104860305786,0.005143880844116211
2.114921,0.44849291443824774,0.15233168005943298,-9.705646514892578,-0.011019408702850342,0.005322696175426246,-0.0008210540981963277
2.119310,0.41953650116920477,0.14908172190189364,-9.803998947143555,-0.00874996278434992,0.019323827698826793,0.0012442469596862793
2.119457,0.3855344951152802,0.2954724729061127,-9.866860389709474,0.001800060388632119,-0.007835028693079948,0.003038346534594894
2.124687,0.4374568462371826,0.2930505573749543,-9.810270309448242,0.0023171303328126673,-0.011202692985534668,0.009509921073913574
2.124772,0.4142310619354248,0.1642856150865555,-9.695784568786623,-0.015495718456804754,-0.016069412231445312,-0.0030890109483152632
2.132597,0.39546200633049017,0.08046188950538635,-9.75361728668213,-0.009426474571228027,-0.004728138446807861,-0.004242361057549716
2.132719,0.40511265397071844,0.20100665092468262,-9.877690315246584,0.016489624977111816,0.00022798780992161485,-0.0037550930865108967
2.134622,0.4129679799079895,0.32407632470130926,-9.83243179321289,-0.00011473896302049981,0.004938244819641113,0.008602440357208252
2.134718,0.4392141401767731,0.24351374804973605,-9.797570228576662,-0.008200109936296942,-0.006845593452453613,0.010126830078661444
2.140074,0.4227787256240845,0.08614017814397813,-9.721887588500977,-0.013111531734466553,-0.003090500831604004,0.0030502679292112593
2.140140,0.3923203945159912,0.0908069759607315,-9.80637836456299,0.005659460555762053,-0.006036459468305111,-0.019201634451746944
2.144563,0.3896223306655884,0.2551029324531555,-9.894477844238281,-0.011074542999267578,-0.013116003014147283,-0.007396937813609839
2.144640,0.41869971156120306,0.2646155655384064,-9.825295448303224,0.002212822437286377,0.00073760753730312,0.009995697066187859
2.150104,0.3543732166290283,0.13815033435821533,-9.756380081176758,-0.0034049155656248335,-0.008630753494799139,-0.012432040646672249
2.150232,0.34815445542335516,0.11371400952339172,-9.738197326660156,0.00950843095779419,0.01450330298393965,-0.012888016179203987
2.154344,0.3777688145637512,0.1914002746343613,-9.912194252014162,0.010469553992152214,0.003534555668011308,-0.019975008442997936
2.154510,0.39105108380317694,0.33608475327491766,-9.858716011047365,-0.007431209553033114,0.0052869319915771484,-0.02399980835616589
2.160113,0.40285727381706243,0.2555606067180634,-9.725232124328615,0.0051602725870907315,-0.009524823166429998,-0.01776665449142456
2.160193,0.4086127579212189,0.12341979891061784,-9.792731285095217,-0.003923475742340088,-0.004906952846795321,-0.019209086894989014
2.165021,0.39311182498931885,0.21067965030670166,-9.80687999725342,0.01592785120010376,-0.006683172192424537,0.00789016578346491
2.165084,0.38502466678619385,0.3502964079380036,-9.936480522155763,0.010670723393559456,-0.0010415912838652732,-0.015211107209324837
2.169364,0.4252243638038635,0.3309401273727417,-9.79923725128174,0.000979006406851113,-0.005346537102013827,-0.008741021156311035
2.169455,0.39110389351844793,0.18661707639694214,-9.772053718566896,-0.0025331976357847457,0.014321506023406982,-0.004681945312768222
2.175078,0.3823679387569428,0.2148433178663254,-9.77907466888428,0.005522370338439941,-0.005494058597832919,-0.008563698269426824
2.175330,0.4041589796543122,0.3491407036781311,-9.89217281341553,0.012505054473876953,-0.014688075520098211,-0.02342909574508667
2.179375,0.41907122731208807,0.4319598078727722,-9.832908630371094,-0.012362004257738592,-0.013729930855333807,-0.010479986667633057
2.179441,0.46334052085876465,0.33535984158515936,-9.788358688354492,-0.014831128530204298,-0.005970895290374756,-0.00596344517543912
2.184762,0.4275151491165161,0.24654725193977356,-9.71839237213135,-0.013974308967590332,-0.0015661121578887107,-0.004488230217248202
2.184845,0.43494859337806707,0.28505602478981024,-9.836573600769045,-0.00459998892620206,0.012978911399841309,-0.01912862248718739
2.189829,0.4324284493923188,0.4222163856029511,-9.939815521240234,-0.006847084499895573,0.01318901777267456,-0.019931795075535778
2.189943,0.46184176206588745,0.397152841091156,-9.777505874633789,-0.003364682896062732,0.001068413257598877,-0.00717193027958274
2.194479,0.42915213108062744,0.22920106351375583,-9.696120262145998,-0.0177189726382494,0.006783009506762028,-0.008311867713928223
2.194544,0.404394418001175,0.20966464281082153,-9.799990653991701,-0.01064092107117176,0.014160576276481153,-0.000895559904165566
2.199959,0.39487007260322576,0.3479485511779785,-9.890718460083008,-0.0011280180187895896,0.003153085475787521,-0.02658068761229515
2.200022,0.42758426070213323,0.42383623123168945,-9.814884185791016,-0.0023573637008666992,-0.003658235771581531,-0.012396277859807014
2.204511,0.4613200128078461,0.3018180727958679,-9.725759506225586,-0.009045004844665527,0.010995567776262762,0.006353855598717929
2.204636,0.45347717404365545,0.2008192241191864,-9.72807502746582,-0.019274653866887096,-0.0033646817319095135,-0.016972424462437633
2.209875,0.45091155171394354,0.2889619469642639,-9.851956367492678,0.010991097427904608,0.0017374757444486024,-0.006258487701416016
2.210006,0.4707544147968293,0.39838600158691406,-9.86500644683838,-0.010286272503435613,0.003473461139947176,0.012604895047843458
2.214333,0.5040405392646791,0.331318736076355,-9.796934127807617,-0.008060036227107048,-0.004555284511297942,0.004991888534277678
2.214402,0.4524986147880554,0.15247173607349399,-9.694578170776367,-0.01599043607711792,-0.0019252301426604392,0.007937848567962646
2.219729,0.405708521604538,0.1665240228176117,-9.787344932556154,-0.006316603161394596,-0.0029608611948788166,0.010791421867907049
2.219794,0.38052323460578924,0.2941080927848816,-9.884841918945312,-0.005215406883507968,0.025582313537597656,0.009264052845537664
2.225102,0.44904834032058716,0.2733926773071289,-9.740838050842287,-0.018708409741520885,0.00772625207901001,-0.0065773725509643555
2.225170,0.4103663265705109,0.15344056487083435,-9.704033851623537,-0.014929476194083692,-0.004382431507110596,-0.001676380983553827
2.229368,0.4036032557487488,0.12758858501911166,-9.748296737670898,0.001531839487142861,0.007696450222283603,0.01728832721710205
2.229452,0.40517550706863403,0.2243342846632004,-9.84586811065674,-0.005345046520233154,0.005608797539025546,0.00012665987014770508
2.235351,0.43884730339050293,0.2782834768295288,-9.861553192138672,-0.009208918549120428,0.010283291339874268,0.01561194658279419
2.235416,0.4582666754722595,0.22336038947105408,-9.790657043457031,-0.0011682511540129783,-0.009052455425262451,0.005944073665887118
2.239774,0.41172438859939575,0.10717867314815521,-9.730224609375,0.02346933074295521,-0.0041052703745663175,-0.007991492748260498
2.239870,0.37727105617523193,0.12169964611530304,-9.810586929321289,0.011187792755663397,0.0010207295417785645,0.0072777275927364835
2.245474,0.38848611712455755,0.2360638678073883,-9.890228271484375,0.0010699034901335838,-0.005546212196350098,-0.008466839790344238
2.245551,0.4035970270633698,0.2552856206893921,-9.822391510009766,-0.0007197260856628418,-0.017108025029301647,-0.01093745231628418
2.249760,0.3844004273414612,0.1502295732498169,-9.723303794860842,0.011533497832715513,-0.006906688679009677,-0.002326071262359619
2.249837,0.37776860594749456,0.12184443324804307,-9.750896453857422,0.01564919948577881,0.004984438885003329,-0.025923550128936768
2.255892,0.3939801752567292,0.21322137117385864,-9.886004447937013,0.000858306942973286,-0.001761317253112793,-0.031307339668273926
